"Time (s)","Linear Acceleration x (m/s^2)","Linear Acceleration y (m/s^2)","Linear Acceleration z (m/s^2)"
1.616873100E-2,1.457877159E-1,-1.377277374E-1,4.663720131E-1
2.616873100E-2,1.130743027E-1,-1.394481659E-1,4.408102036E-1
3.616673100E-2,7.924699783E-2,-1.401591301E-1,4.140043259E-1
4.616573100E-2,4.464912415E-2,-1.402363777E-1,3.864870071E-1
5.617539700E-2,-2.489757538E-2,-1.069598198E-1,3.128185272E-1
6.618264700E-2,-9.876251221E-2,-8.921766281E-2,2.462072372E-1
7.618824700E-2,-1.739025116E-1,-8.795499802E-2,1.892499924E-1
8.619258000E-2,-2.491574287E-1,-1.001529694E-1,1.409149170E-1
9.619743700E-2,-3.260979652E-1,-1.205463409E-1,9.704589844E-2
1.062018120E-1,-4.109749794E-1,-1.428508759E-1,4.985857010E-2
1.162057000E-1,-4.855809212E-1,-1.621932983E-1,9.341239929E-3
1.262089000E-1,-5.525479317E-1,-1.806983948E-1,-2.551651001E-2
1.362229900E-1,-6.155376434E-1,-1.992321014E-1,-5.693387985E-2
1.462364060E-1,-6.784114838E-1,-2.175507545E-1,-8.768939972E-2
1.562486360E-1,-7.412009239E-1,-2.356209755E-1,-1.178283691E-1
1.662597070E-1,-8.039131165E-1,-2.534246445E-1,-1.473846436E-1
1.762703070E-1,-8.665637970E-1,-2.709693909E-1,-1.763663292E-1
1.862798070E-1,-9.291539192E-1,-2.882218361E-1,-2.048039436E-1
1.962882770E-1,-9.910674095E-1,-2.821073532E-1,-2.451348305E-1
2.062957210E-1,-1.051345825E0,-2.750864029E-1,-2.842984200E-1
2.163039310E-1,-1.104424477E0,-2.707872391E-1,-3.171949387E-1
2.263114310E-1,-1.156202316E0,-2.692904472E-1,-3.473343849E-1
2.363183350E-1,-1.207055569E0,-2.680444717E-1,-3.763585091E-1
2.463245620E-1,8.142061234E-1,-1.582243204E0,2.094317436E0
2.563308660E-1,1.285394192E0,-1.537586927E0,1.758134365E0
2.663366990E-1,1.213999748E0,-1.271712780E0,1.903510571E0
2.763421390E-1,1.831677198E0,-8.027906418E-1,1.572768688E0
2.863471000E-1,2.204392910E0,-5.334460735E-1,1.255795956E0
2.963529140E-1,2.152471542E0,-4.900515079E-1,1.207247257E0
3.063585560E-1,2.155227661E0,-1.866354942E-1,1.070048332E0
3.163639000E-1,1.911441326E0,-3.677651882E-1,1.291905403E0
3.263688330E-1,1.783611536E0,-7.358760834E-1,1.953530312E0
3.363739660E-1,1.649533987E0,-1.016747713E0,2.838362694E0
3.463788990E-1,1.411374807E0,-1.370348930E0,3.913310051E0
3.563826990E-1,1.388304234E0,-1.612500429E0,4.607921600E0
3.663864650E-1,1.786552072E0,-1.739339590E0,4.830134392E0
3.763911980E-1,2.147851944E0,-1.726331472E0,4.560937881E0
3.863959640E-1,2.407105923E0,-1.716144681E0,4.058738708E0
3.964003970E-1,2.469273329E0,-1.952636003E0,3.096975327E0
4.064046630E-1,2.544856548E0,-2.020872593E0,2.204807281E0
4.164092290E-1,2.312423706E0,-1.987342119E0,1.399809837E0
4.264138620E-1,2.237993240E0,-1.859377861E0,4.512176514E-1
4.364143950E-1,1.950129509E0,-1.657846212E0,-1.811170578E-1
4.464147610E-1,2.065758705E0,-1.625797153E0,-8.085203171E-1
4.564165270E-1,2.060083389E0,-1.582286716E0,-8.686084747E-1
4.664185270E-1,2.135927677E0,-1.395982981E0,-5.661563873E-1
4.764203930E-1,2.482573748E0,-1.184198618E0,-1.558904648E-1
4.864224260E-1,2.728526831E0,-1.100136876E0,4.066686630E-1
4.964248920E-1,2.954884768E0,-1.006457210E0,8.374147415E-1
5.064277580E-1,2.846196413E0,-9.942034483E-1,8.019247055E-1
5.164299580E-1,2.823315859E0,-9.421453476E-1,1.223837852E0
5.264322580E-1,2.717580795E0,-8.836786747E-1,7.785730362E-1
5.364355910E-1,2.896205425E0,-6.501929760E-1,-8.242893219E-2
5.464391570E-1,3.090825081E0,-4.762781858E-1,-8.264150620E-1
5.564425230E-1,3.104527235E0,-3.334169388E-1,-1.378971577E0
5.664460560E-1,2.875129223E0,-1.675794125E-1,-1.498149395E0
5.764502220E-1,2.319715977E0,-4.641962051E-2,-1.459516525E0
5.864546550E-1,1.957998276E0,4.990053177E-2,-1.282309532E0
5.964582210E-1,1.683518171E0,-3.694438934E-2,-9.738893509E-1
6.064617870E-1,1.569084525E0,-2.432672977E-1,-6.008148193E-1
6.164664530E-1,1.628267646E0,-4.208409786E-1,-4.948368073E-1
6.264714530E-1,1.670481801E0,-5.496393442E-1,-5.565500259E-1
6.364762190E-1,1.696353078E0,-6.489543915E-1,-8.527812958E-1
6.464811850E-1,1.626270533E0,-7.522646189E-1,-1.182455063E0
6.564866180E-1,1.711283445E0,-6.906410456E-1,-1.422616005E0
6.664920510E-1,1.464412928E0,-4.720026255E-1,-1.186034203E0
6.764965170E-1,1.497467279E0,-4.324802160E-1,-1.185228348E0
6.865010830E-1,1.794867754E0,-2.407662868E-1,-1.095595360E0
6.965068490E-1,1.873784900E0,1.914409399E-1,-1.002263069E0
7.065128820E-1,2.025907993E0,1.600985527E-1,-7.872056961E-1
7.165187150E-1,2.003715038E0,1.986478567E-1,-1.307849884E-1
7.265247150E-1,2.018063307E0,2.851650715E-1,-1.427955627E-1
7.365313150E-1,1.931514621E0,-1.942377090E-1,8.315629959E-1
7.465379150E-1,1.944606066E0,-6.271271706E-1,1.185079575E0
7.565431810E-1,1.791132569E0,-7.291972041E-1,1.093180656E0
7.665484810E-1,1.431938648E0,-6.700683236E-1,7.514991760E-1
7.765549140E-1,1.452532887E0,-4.154597521E-1,6.430568695E-1
7.865615470E-1,1.529166341E0,-3.494620323E-1,6.595363617E-1
7.965680800E-1,2.167702675E0,2.913898230E-1,2.325630188E-2
8.065747460E-1,2.188704967E0,1.376794577E-1,4.666738510E-1
8.165817460E-1,1.823704004E0,-2.774031758E-1,9.509582520E-1
8.265887790E-1,1.064692736E0,-4.588834345E-1,1.683170319E0
8.365949450E-1,1.614007950E-1,-7.666251659E-1,2.588562965E0
8.466012450E-1,-7.082247734E-2,-1.238866568E0,2.886060715E0
8.566086780E-1,3.602015972E-1,-1.372472286E0,2.132355690E0
8.666161440E-1,6.412997246E-1,-1.389245272E0,1.423099518E0
8.766231100E-1,9.222016335E-1,-1.289528251E0,5.733318329E-1
8.866300430E-1,1.086604834E0,-1.107045650E0,-1.902389526E-2
8.966373760E-1,1.242547274E0,-9.775649309E-1,-1.845655441E-1
9.066446760E-1,5.518705845E-1,-1.443962932E0,4.616853714E0
9.166509420E-1,2.175308228E0,-9.635967612E-1,-9.403753281E-1
9.266580080E-1,1.959648252E0,-8.400361538E-1,1.696707726E0
9.366663410E-1,2.294676542E0,-5.572618246E-1,2.548588753E0
9.466747740E-1,2.211029530E0,-4.891320467E-1,2.516515732E0
9.566830070E-1,1.350453377E0,-1.784361839E0,6.070619583E0
9.666914070E-1,1.495940685E0,-2.570970774E0,6.142978668E0
9.767002070E-1,2.497361660E0,-3.274327040E0,4.657435417E0
9.867090070E-1,2.976957798E0,-3.683496952E0,3.538666725E0
9.967167730E-1,2.821216583E0,-3.630045414E0,2.481734276E0
1.006724506E0,2.222574949E0,-2.971031904E0,1.932769775E0
1.016733272E0,2.108621120E0,-2.227526188E0,1.338674545E0
1.026742072E0,2.830088615E0,-1.683733940E0,6.682033539E-1
1.036750272E0,3.274318218E0,-1.278424144E0,3.150482178E-1
1.046758405E0,3.075353384E0,-9.150934815E-1,-4.423046112E-2
1.056766838E0,3.353638887E0,-2.489113510E-1,1.917362213E-2
1.066775038E0,4.647115231E0,5.600154400E-3,-4.242734909E-1
1.076782238E0,4.666544914E0,-3.017763793E-1,-1.073365211E0
1.086789338E0,8.701150417E-1,-9.151101112E-1,-1.608994007E0
1.096797338E0,-1.871491671E0,-1.566426754E0,-2.051709652E0
1.106805071E0,-1.942153692E0,-1.650407672E0,-2.072861195E0
1.116812237E0,2.416067600E0,-2.240335464E0,-8.913650513E-1
1.126819503E0,2.493328571E0,-1.512695074E0,-3.483715057E-1
1.136827136E0,2.453011751E0,-5.770491362E-1,-3.361787796E-1
1.146836569E0,3.067534447E0,1.231015563E0,-1.833382607E0
1.156844702E0,2.896630287E0,1.081247807E0,-1.864624977E0
1.166852735E0,2.728043079E0,9.340065718E-1,-1.890031815E0
1.176861901E0,3.475813389E0,5.402340889E-1,-2.191749096E0
1.186871201E0,4.653890610E0,-6.062464714E-1,-1.851184368E0
1.196880101E0,4.169653893E0,-5.193616152E-1,-1.570917606E0
1.206888934E0,3.626960278E0,6.235129833E-1,-2.069198608E0
1.216898167E0,3.132885456E0,1.455530405E0,-2.388719082E0
1.226906400E0,3.160756588E0,1.827614546E0,-2.410396099E0
1.236913533E0,3.356409550E0,1.387512445E0,-1.895115376E0
1.246920533E0,3.316114902E0,6.601099968E-1,-9.626417160E-1
1.256928666E0,3.326141834E0,4.046297073E-2,-8.446216583E-1
1.266936799E0,4.399117470E0,-9.606112242E-1,1.711406708E-1
1.276944665E0,5.091289043E0,-1.845960498E0,-3.710832596E-1
1.286952498E0,4.852595329E0,-2.147484779E0,-1.606018066E0
1.296960798E0,3.646003962E0,-2.452592134E0,-2.068067551E0
1.306969098E0,2.627347708E0,-2.855869770E0,-2.572026253E0
1.316976264E0,1.765295267E0,-3.326408148E0,-2.700459957E0
1.326983264E0,1.505688906E0,-3.582132578E0,-2.579528809E0
1.336991297E0,1.265448093E0,-3.427280903E0,-2.337272167E0
1.346999330E0,1.173219204E0,-2.878514767E0,-2.479303837E0
1.357007096E0,1.355183721E0,-2.832711458E0,-2.449352264E0
1.367014996E0,2.006641388E0,-3.257015705E0,-2.268875122E0
1.377023062E0,2.625437737E0,-3.284041882E0,-2.072473526E0
1.387031128E0,2.264135599E0,-2.364888430E0,-2.273289680E0
1.397038361E0,2.176215887E0,-1.659925461E0,-2.485901833E0
1.407045794E0,2.630265236E0,-1.540584087E0,-2.039617062E0
1.417054527E0,2.701666355E0,-1.714138508E0,-1.662541389E0
1.427063360E0,1.044466496E0,-1.637341022E0,-9.311728477E-1
1.437071993E0,-2.389532089E0,-1.130334377E0,-5.343227386E-1
1.447078859E0,-4.195467472E0,-1.861088753E0,-1.760568619E-1
1.457086159E0,-4.042496681E0,-3.970191956E0,-3.239774704E-2
1.467093559E0,-3.122032881E0,-5.615588665E0,-5.684995651E-2
1.477099792E0,-2.252727032E0,-6.915148735E0,-1.003513336E0
1.487105925E0,-1.904310465E0,-7.448979855E0,-2.461884975E0
1.497113125E0,-1.346477151E0,-7.398823261E0,-3.649632692E0
1.507120425E0,-7.890610695E-1,-7.019186020E0,-4.519454479E0
1.517127358E0,-3.749532700E-1,-6.925303459E0,-4.957868099E0
1.527134324E0,-5.140304565E-4,-7.124886990E0,-4.863314629E0
1.537141357E0,6.656894684E-1,-7.333808422E0,-4.323474884E0
1.547148423E0,1.553735256E0,-7.474336624E0,-3.667877197E0
1.557154289E0,2.097381115E0,-7.524898529E0,-2.861526966E0
1.567160122E0,2.681669712E0,-7.234458923E0,-1.765069723E0
1.577166988E0,3.813214302E0,-6.887833118E0,-6.181321144E-1
1.587173854E0,4.392498016E0,-6.595654011E0,1.691238880E-1
1.597180187E0,3.988409996E0,-6.395324230E0,5.819821358E-1
1.607186753E0,3.683845520E0,-5.296098232E0,-1.842565536E-1
1.617193919E0,4.107677460E0,-4.645220280E0,-8.334860802E-1
1.627201385E0,4.562711239E0,-3.745090485E0,-8.676836491E-1
1.637208218E0,5.120713234E0,-3.193654537E0,-2.313137054E-2
1.647215351E0,5.921796799E0,-2.648341417E0,9.140690565E-1
1.657223851E0,6.553830147E0,-2.081133842E0,1.289574623E0
1.667232484E0,7.036223412E0,-1.209946156E0,1.191464186E0
1.677240950E0,7.497620583E0,-7.801771164E-3,8.140794635E-1
1.687249350E0,8.073414803E0,1.376785994E0,4.417752326E-1
1.697258083E0,8.757790565E0,2.584340572E0,3.007990420E-1
1.707266716E0,9.237943649E0,3.593852758E0,4.414391220E-1
1.717274282E0,9.705226898E0,4.612674713E0,2.997305393E-1
1.727281715E0,9.886188507E0,5.498579025E0,-6.621931493E-2
1.737290081E0,9.084185600E0,5.584570885E0,-2.002653778E-1
1.747298281E0,8.083564758E0,5.489032745E0,-6.027163267E-1
1.757306147E0,7.153750420E0,4.788141251E0,-2.338521957E0
1.767313947E0,4.966019630E0,4.252170086E0,-2.723870277E0
1.777322147E0,4.921269417E0,4.269567490E0,-1.818127275E0
1.787330280E0,4.470746040E0,3.929554939E0,-6.356991529E-1
1.797337446E0,3.397963524E0,3.646174192E0,4.027297497E-1
1.807344746E0,3.244227409E0,3.594954729E0,1.031679988E0
1.817353179E0,2.943964005E0,3.092961788E0,7.862752676E-2
1.827361845E0,2.010480881E0,2.182358265E0,-1.064751625E0
1.837370378E0,9.884033203E-1,1.317023993E0,-1.423503160E0
1.847379011E0,-4.095172882E-2,2.858579159E-1,-2.889931679E0
1.857388144E0,-1.536633492E0,-7.517390251E-1,-3.892433167E0
1.867397277E0,-2.094643593E0,-1.957216263E0,-2.916704178E0
1.877405377E0,-1.759448528E0,-2.871329784E0,-1.464494467E0
1.887413577E0,-2.235229492E0,-3.535490513E0,-8.966951370E-1
1.897422877E0,-2.212920189E0,-3.568589211E0,2.844851017E-1
1.907431943E0,-2.438013077E0,-4.062837124E0,2.639005184E-1
1.917440609E0,1.389862061E0,-3.099920034E0,1.570610285E0
1.927449042E0,-1.751161575E0,-3.102380037E0,-6.802941561E-1
1.937458008E0,2.685644150E0,-1.524736881E0,1.952549815E0
1.947488141E0,1.700938225E0,-2.754765511E0,-3.070006609E0
1.957517274E0,-1.055170059E0,-4.104069233E0,-6.678852558E0
1.967546440E0,-3.915680885E0,-3.737244129E0,-5.408926487E0
1.977576606E0,3.947291374E0,-9.188932180E-1,-9.627243996E0
1.987606872E0,4.245063782E0,-9.061646461E-2,-7.567969322E0
1.997636738E0,4.150885582E0,5.864703655E-1,-8.391592979E0
2.007666671E0,4.743673325E0,1.957600594E0,-7.059194088E0
2.017697104E0,3.889966011E0,2.091981888E0,-5.295361519E0
2.027727637E0,4.072841644E0,2.020429373E0,-5.174994946E0
2.037757170E0,3.870286942E0,1.325662613E0,-5.325453281E0
2.047786870E0,3.214542389E0,-1.510152817E-1,4.331300855E-1
2.057817836E0,1.949945450E0,-2.739513874E0,3.737323284E0
2.067848869E0,1.042266846E0,-4.839457512E0,6.480497837E0
2.077879469E0,9.868917465E-1,-5.968957424E0,5.259418011E0
2.087910069E0,4.825277328E0,-6.509115219E0,1.633675694E0
2.097940802E0,4.100386620E0,-5.388068199E0,-5.094937801E0
2.107971302E0,2.952304840E0,-3.395308733E0,-8.714908600E0
2.118000735E0,1.830544472E0,-2.010975838E0,-1.611111879E0
2.128030035E0,2.196627617E0,-3.247349262E0,2.751224518E0
2.138060468E0,7.278270721E-1,-5.817269325E0,3.043950558E0
2.148091001E0,-1.688593864E0,-7.015837193E0,2.516030312E0
2.158121101E0,-4.055352211E0,-7.165276527E0,2.581805706E0
2.168151301E0,-4.797287941E0,-6.920263290E0,3.220205307E0
2.178181834E0,-4.580825329E0,-5.750864983E0,3.718487740E0
2.188212534E0,-4.320172310E0,-3.844796658E0,4.042347431E0
2.198242400E0,-3.001190662E0,-2.587255955E0,4.075897217E0
2.208272500E0,-1.609322548E0,-1.878074527E0,4.198699474E0
2.218303633E0,-8.090848923E-1,-1.313428879E0,4.321571350E0
2.228334899E0,-2.333250046E-1,-5.173676014E-1,3.867869139E0
2.238365565E0,1.040084839E0,-4.347270727E-1,2.647358894E0
2.248375131E0,5.964889526E-1,-1.055998206E0,2.504230499E0
2.258384964E0,2.009265900E0,-8.610337377E-1,2.440641880E0
2.268394964E0,2.732851982E0,-9.716145992E-1,1.728106856E0
2.278403964E0,2.157835007E0,-8.397369385E-1,1.392161846E-1
2.288413097E0,1.605248451E0,-9.953738451E-1,-1.368465781E0
2.298423363E0,4.152717590E-1,-1.926746368E0,-2.282321930E0
2.308433696E0,-1.565203190E0,-3.458865643E0,-2.944253922E0
2.318443696E0,-2.626540661E0,-4.674227238E0,-2.882103920E0
2.328453929E0,-2.576823711E0,-4.591129303E0,-3.021472216E0
2.338464529E0,-4.074234962E0,-5.178670883E0,-3.209197044E0
2.348475195E0,-3.223686218E0,-5.034548759E0,-2.151099205E0
2.358484861E0,-3.038905144E0,-4.350888252E0,-1.621844292E0
2.368494561E0,-2.650324345E0,-3.102684498E0,-9.232506752E-1
2.378505461E0,-3.416182518E0,-2.825730801E0,-8.560085297E-2
2.388516394E0,-3.942945480E0,-3.390437841E0,1.573890209E0
2.398527127E0,-4.191840649E0,-2.945107460E0,2.404758215E0
2.408537993E0,-3.723743439E0,-1.763449311E0,-3.961443901E-1
2.418549326E0,-3.233247757E0,2.963896990E-1,-1.970372438E0
2.428560859E0,-2.022740841E0,1.251119256E0,-1.855736971E0
2.438571459E0,-1.000552654E0,1.396938920E0,-4.372503757E-1
2.448582192E0,1.405591965E-1,2.599032640E0,4.117751122E-1
2.458594392E0,7.196273804E-1,3.234942436E0,-2.716613770E0
2.468606825E0,6.950912476E-1,3.695409536E0,-3.412948132E0
2.478619091E0,1.347595215E0,4.380994320E0,-3.214735746E0
2.488631324E0,1.803264141E0,4.682408810E0,-3.042295456E0
2.498643990E0,1.689748287E0,4.050755978E0,-2.600913525E0
2.508656623E0,1.781942844E0,3.430279016E0,-2.749851227E0
2.518668289E0,2.643835545E0,3.251599789E0,-2.420051813E0
2.528680089E0,3.298583508E0,3.124617577E0,-2.010021925E0
2.538692855E0,3.873171329E0,3.671968699E0,-1.597643614E0
2.548705488E0,4.054109097E0,4.145285606E0,-1.945221186E0
2.558717721E0,4.078371048E0,4.020455837E0,-2.435833693E0
2.568729787E0,4.472280025E0,4.283148766E0,-2.245978832E0
2.578742287E0,5.312977314E0,5.136929512E0,-8.482148647E-1
2.588754853E0,6.053953648E0,5.378326893E0,5.547122955E-1
2.598766553E0,5.370349884E0,3.598498821E0,4.922056198E-1
2.608778319E0,3.480426311E0,2.285866737E-1,-4.901676178E-1
2.618791119E0,1.951581955E0,-2.814587831E0,4.151129723E-1
2.628803652E0,-2.869057655E-1,-5.833462715E0,9.705204964E-1
2.638815685E0,-7.944836617E-1,-5.963035583E0,3.267960548E-1
2.648827718E0,-8.306255341E-1,-4.427266598E0,-4.728369713E-1
2.658839951E0,7.627334595E-1,-2.048616648E0,-1.220536470E0
2.668852151E0,2.130497932E0,9.312963486E-2,-1.908281684E0
2.678863384E0,3.499125481E0,1.674194694E0,-4.558198452E-1
2.688874750E0,3.796545029E0,9.918932915E-1,-2.257908821E0
2.698887183E0,6.094372749E0,-1.277279854E-2,-3.204214811E0
2.708899716E0,8.261357307E0,9.989274740E-1,3.324105978E0
2.718912016E0,4.686437607E0,-4.018477440E0,2.478657007E0
2.728924349E0,3.947884560E0,-5.677805424E0,1.367503405E0
2.738937082E0,3.359626770E0,-4.015470982E0,8.393552303E-1
2.748949615E0,2.435789108E0,-3.374933243E0,-2.533750534E-1
2.758960681E0,1.294199944E0,-2.547438860E0,8.602190018E-2
2.768971414E0,1.203205109E0,-2.581322432E0,3.188571930E-1
2.778982980E0,9.305372238E-1,-2.641432762E0,3.869436979E-1
2.788994346E0,5.997295380E-1,-3.856024504E0,-1.140892506E-1
2.799005279E0,7.359418869E-1,-5.743332863E0,-1.831202507E-1
2.809016145E0,-2.038497925E-1,-8.122617722E0,-1.335409880E-1
2.819027378E0,1.752738953E-1,-8.546413422E0,-5.126099586E-1
2.829038611E0,2.138862610E-1,-7.361036777E0,1.899731755E-1
2.839048877E0,2.736339569E-1,-5.791513920E0,-4.489975572E-1
2.849059277E0,2.674016953E-1,-6.003795624E0,-2.007534504E-1
2.859070843E0,9.109392166E-1,-3.440582752E0,-5.760422349E-1
2.869082443E0,7.344503403E-1,-3.373939037E0,3.037514687E-1
2.879093809E0,1.302377701E0,-3.222791195E0,8.456699252E-1
2.889106075E0,1.049232483E0,-2.725642443E0,1.615725517E0
2.899118941E0,1.843642235E0,-2.986823797E0,2.980304241E0
2.909131907E0,1.533738136E0,-4.126801968E0,3.884219885E0
2.919143840E0,7.509784698E-1,-4.869828224E0,4.392919540E0
2.929156073E0,1.266984940E-1,-5.600852013E0,4.245981216E0
2.939169639E0,-9.468851089E-1,-6.344996929E0,4.075108528E0
2.949183272E0,-1.818261147E0,-6.682831287E0,3.734511614E0
2.959196805E0,-2.217826366E0,-6.471075535E0,3.104269028E0
2.969210738E0,-2.673674583E0,-5.462356567E0,1.667558551E0
2.979225338E0,-2.324055672E0,-4.270585060E0,3.953554630E-1
2.989240304E0,-2.831164360E0,-3.909949303E0,8.863912225E-1
2.999254504E0,-3.110700130E0,-3.945030212E0,1.461772323E-1
3.009268904E0,-3.418946266E0,-3.922960043E0,-1.934136152E-1
3.019284504E0,-4.259135246E0,-4.117516994E0,-8.165246248E-2
3.029300370E0,-4.963624954E0,-4.262526989E0,2.628659606E-1
3.039316070E0,-5.159317017E0,-3.862968445E0,8.451247215E-2
3.049331936E0,-5.412060261E0,-4.488888741E0,2.339667082E-2
3.059348336E0,-5.209294319E0,-4.330990791E0,5.679326057E-1
3.069364969E0,-4.967693329E0,-4.169196129E0,7.921042442E-1
3.079380802E0,-4.977486610E0,-3.988483667E0,8.125549555E-1
3.089396735E0,-3.055889606E0,-2.769079208E0,1.259760499E0
3.099413701E0,-2.001433372E0,-2.197699308E0,1.095232129E0
3.109430834E0,-3.931722641E-1,-1.583451986E0,1.230278373E0
3.119447734E0,-3.927564621E-1,-1.331777096E0,1.172360420E0
3.129464734E0,9.065361023E-1,-2.897433043E-1,1.055171967E0
3.139482100E0,2.430476189E0,1.798101664E0,-1.938549280E-1
3.149499433E0,3.177969933E0,3.765703917E0,-2.373880863E0
3.159515766E0,1.564043999E0,3.054175854E0,-1.008597732E0
3.169532199E0,4.125047684E0,5.376889706E0,-9.639646530E0
3.179549732E0,2.877522469E0,5.749508858E0,-7.135488033E0
3.189566465E0,3.209681511E0,3.277316093E0,-4.991397858E0
3.199582631E0,3.241880417E0,1.533731222E0,-3.731712818E0
3.209598797E0,2.669363022E0,9.743782282E-1,-4.298885345E0
3.219615397E0,2.952376366E0,7.136233449E-1,-4.716780663E0
3.229631897E0,3.269787788E0,8.882855773E-1,-3.648803234E0
3.239647497E0,4.194351196E0,2.003283262E0,-3.032321215E0
3.249663063E0,4.173476219E0,2.827646732E0,-4.176103115E0
3.259679696E0,4.828483582E0,3.445393801E0,-4.583725929E0
3.269696196E0,5.418663025E0,2.875601292E0,-1.535438538E0
3.279712162E0,4.327040672E0,1.450988531E0,7.414696217E-1
3.289727895E0,2.060928345E-1,-2.306556702E0,8.396260142E-1
3.299743795E0,1.114396095E0,-3.737722635E0,3.447668076E0
3.309759828E0,-1.472597122E-1,-6.667061329E0,2.616920233E0
3.319774828E0,1.474771500E-1,-9.346158981E0,2.243009090E0
3.329789828E0,5.471477509E-1,-1.093322849E1,1.614297628E-1
3.339805894E0,-7.541732788E-1,-1.059792519E1,-1.887174606E0
3.349822194E0,-1.798363686E0,-7.591217518E0,4.160428047E-1
3.359838394E0,-4.191732407E-1,-6.822539806E0,2.605652511E-1
3.369854860E0,-1.512808800E0,-7.926823616E0,1.787458658E0
3.379871760E0,-3.010719299E0,-9.183663368E0,3.166594744E0
3.389888826E0,-5.015741825E0,-1.011842155E1,3.396329403E0
3.399904992E0,-5.761381149E0,-1.035577583E1,3.595704079E0
3.409921125E0,-5.389463902E0,-9.100269318E0,4.187040806E0
3.419938225E0,-4.252753735E0,-8.096814156E0,4.503585339E0
3.429955225E0,-2.645546436E0,-6.755970001E0,5.348071575E0
3.439971925E0,-1.209830284E0,-5.436856747E0,3.327535391E0
3.449988791E0,-3.702564240E-1,-4.316691875E0,1.853753328E0
3.460006024E0,9.114952087E-1,-3.622529030E0,9.217571616E-1
3.470023324E0,4.207506180E-1,-2.511781454E0,8.911498189E-1
3.480039490E0,4.423904419E-2,-2.583141804E0,1.096374750E0
3.490055623E0,-7.658576965E-2,-2.742028713E0,1.069070101E0
3.500072823E0,-4.706916809E-1,-2.797476530E0,1.180855751E0
3.510090023E0,-4.297533035E-1,-2.517791510E0,1.562235832E0
3.520106956E0,-2.174787521E-1,-1.956878543E0,1.422922134E0
3.530123956E0,4.651927948E-2,-1.396529198E0,9.728869200E-1
3.540141222E0,9.810829163E-2,-8.791939914E-2,1.247328281E0
3.550158655E0,6.016998291E-1,7.079766989E-1,4.459353685E-1
3.560175155E0,7.088308334E-1,7.046095729E-1,-4.433866739E-1
3.570191755E0,8.812513351E-1,6.780111790E-1,-8.666027784E-1
3.580209455E0,7.911148071E-1,7.364794612E-1,-1.509944558E0
3.590227355E0,2.169618607E-1,5.579141378E-1,-1.481819749E0
3.600245188E0,-1.523799896E-1,2.036152780E-1,-1.149638891E0
3.610262954E0,-3.213863373E-1,-6.241643429E-2,-9.803701043E-1
3.620280987E0,-1.490459442E-1,1.961100101E-2,-9.476783276E-1
3.630298853E0,-8.876428604E-1,2.930889428E-1,-4.070200920E-1
3.640315653E0,-7.682046890E-1,5.786328316E-1,-9.337632656E-1
3.650332419E0,-4.600334167E-2,9.040039778E-1,-1.789867401E0
3.660350319E0,-1.005443573E0,8.666875362E-1,-1.705186009E0
3.670368119E0,-1.943864822E-1,1.563915968E0,-9.475141764E-1
3.680385585E0,1.430206299E-1,1.774923325E0,-8.072118759E-1
3.690403218E0,6.723117828E-2,1.600487709E0,-9.046610594E-1
3.700421284E0,-1.006040573E-1,1.313965797E0,-9.818185568E-1
3.710439550E0,4.833221436E-3,3.721823096E-1,-4.609049559E-1
3.720456916E0,-5.548934937E-1,-1.269717813E0,-6.405062675E-1
3.730474482E0,-2.927589417E-1,-2.480087757E0,4.079341888E-4
3.740493082E0,-1.132488251E-1,-2.141434669E0,1.691002011E0
3.750511782E0,6.336116791E-1,-8.515645862E-1,1.316638350E0
3.760530082E0,1.312451363E0,4.285600483E-1,4.869418144E-1
3.770548315E0,1.316457748E0,1.058952570E0,-2.233253717E-1
3.780566948E0,9.003448486E-1,1.360948205E0,-7.636977434E-1
3.790585748E0,6.460857391E-2,1.635350227E0,-1.497692943E0
3.800603614E0,-1.170084953E0,1.512078047E0,-1.803539395E0
3.810621580E0,-9.609270096E-1,5.987491012E-1,-1.777052402E0
3.820640613E0,-4.883422852E-1,-1.841716766E-1,-1.829921842E0
3.830659613E0,1.307401657E-1,-1.966401339E-1,-1.557872295E0
3.840678479E0,1.224908829E0,2.876472473E-1,-1.410161972E0
3.850697545E0,1.477199554E0,1.572297573E0,-2.159211636E0
3.860717078E0,1.792970657E0,2.633855820E0,-2.586974859E0
3.870736811E0,1.933322906E0,3.081193209E0,-2.871617556E0
3.880755577E0,2.772063255E0,3.362601280E0,-2.723709106E0
3.890774710E0,2.743420601E0,3.758116245E0,-1.214967847E0
3.900795110E0,2.760079384E0,3.863994122E0,-1.147374392E0
3.910815743E0,3.855111122E0,3.121613503E0,-2.082044840E0
3.920836343E0,5.312964439E0,2.723569155E0,-1.881017089E0
3.930857309E0,6.267834663E0,2.868997097E0,-1.424451828E0
3.940878975E0,5.734045029E0,3.006466627E0,-2.783703804E-1
3.950900775E0,4.945238113E0,2.497515440E0,-1.600661278E-1
3.960921541E0,4.903723717E0,2.454301119E0,2.661788464E-2
3.970942541E0,3.603268623E0,1.804416656E0,-5.300555825E-1
3.980964974E0,1.388388634E0,5.353620052E-1,-1.225466013E0
3.990987607E0,1.353759766E0,4.724752903E-1,-1.037451506E0
4.001010173E0,1.325971603E0,4.166867733E-1,-8.579893112E-1
4.011032906E0,3.279444695E0,-2.538050652E0,3.257528841E-1
4.021056272E0,3.156480789E0,-4.790813446E0,4.931493849E-2
4.031079838E0,1.662711143E0,-6.844921112E0,4.835135937E-1
4.041102504E0,5.514202118E-1,-7.760661125E0,1.803063631E0
4.051125370E0,-4.954681396E-1,-7.508382797E0,2.088560581E0
4.061149903E0,-1.363249302E0,-5.813044548E0,1.123672605E0
4.071174936E0,-1.610191822E0,-4.889295578E0,-9.531221390E-1
4.081200102E0,-1.116783142E0,-4.454528809E0,-2.627344608E0
4.091225668E0,-7.268266678E-1,-3.921481609E0,-8.242222071E-1
4.101251901E0,-1.122891903E0,-3.810764790E0,1.192141771E0
4.111278467E0,-9.990248680E-1,-3.849626780E0,1.691108465E0
4.121304233E0,-1.502783775E0,-5.237382889E0,6.669535637E-1
4.131330366E0,-1.486298084E0,-5.176211834E0,8.647148609E-1
4.141357832E0,-1.528160095E0,-4.973248482E0,1.187860727E0
4.151385432E0,-1.943924904E0,-4.268317223E0,1.680027008E0
4.161412998E0,-2.400050163E0,-3.119578838E0,2.601034880E0
4.171440431E0,-2.612616539E0,-1.795140028E0,3.640016556E0
4.181468697E0,-2.494615078E0,-1.727967739E0,3.798684597E0
4.191496863E0,-2.557407856E0,-4.820456505E-1,4.275555611E0
4.201524029E0,-2.320747852E0,-3.514568806E-1,4.191715240E0
4.211551295E0,-2.148971081E0,-9.631042480E-1,4.686807632E0
4.221579661E0,-2.266490936E0,-1.641597509E0,5.601045609E0
4.231608094E0,-2.124065876E0,-2.612478256E0,6.028770924E0
4.241636160E0,-2.014940262E0,-3.459277868E0,5.773931980E0
4.251664226E0,-2.104305267E0,-4.048852921E0,5.529311657E0
4.261692692E0,-2.040734768E0,-4.725535393E0,5.540477753E0
4.271721092E0,-2.286630154E0,-5.017519474E0,5.376169682E0
4.281748458E0,-3.548787594E0,-4.659516335E0,5.376456261E0
4.291775758E0,-4.398124695E0,-3.450312614E0,5.524741650E0
4.301804091E0,-5.102840424E0,-1.448448658E0,5.131135464E0
4.311832424E0,-5.676033974E0,-3.965158463E-1,4.616689682E0
4.321860357E0,-5.804058075E0,1.247801781E-1,4.144861221E0
4.331888290E0,-5.528094769E0,2.563118935E-1,3.894735575E0
4.341916790E0,-5.352834225E0,3.788132668E-1,3.936365128E0
4.351945256E0,-5.192775249E0,4.802527428E-1,3.807327986E0
4.361972456E0,-4.910810947E0,5.351266861E-1,3.411367416E0
4.371999589E0,-4.771941662E0,7.079243660E-1,2.534967422E0
4.382027789E0,-4.420303345E0,9.427056313E-1,1.809893608E0
4.392055889E0,-3.868792295E0,1.713680267E0,2.261009216E-1
4.402083489E0,-3.017881870E0,2.402134895E0,-2.671385288E0
4.412111122E0,-1.049570084E0,2.243650436E0,-6.903840542E0
4.422139322E0,1.364874363E0,1.667829990E0,-9.854413986E0
4.432167755E0,2.413452148E0,-7.787227631E-2,-1.119715691E1
4.442195288E0,2.033966064E0,-2.032432079E0,-1.117372704E1
4.452222954E0,1.024564743E0,-3.337945938E0,-1.132314682E1
4.462251754E0,1.734645844E0,-3.107461452E0,-1.107134056E1
4.472280820E0,1.008048058E0,-2.178090572E0,-4.986285210E0
4.482309386E0,8.937702179E-1,-1.537273884E0,4.831235409E-1
4.492337819E0,1.047370911E0,-1.693362713E0,-1.972513199E-1
4.502366585E0,1.512513638E0,-3.572456837E0,-4.475543976E0
4.512395351E0,1.203044415E0,-5.030508041E0,-1.001316071E0
4.522423151E0,-1.536426544E-1,-5.027615547E0,5.824294090E0
4.532451051E0,-1.204283237E0,-5.013214111E0,1.030418968E1
4.542480117E0,-1.210367680E0,-2.411662579E0,1.356578064E1
4.552509383E0,-1.918743849E0,-2.463155270E0,1.266236687E1
4.562538349E0,-3.110441685E0,-2.555228233E0,1.044118881E1
4.572567349E0,-4.498054504E0,-4.671223640E0,-9.478602409E0
4.582596549E0,-7.054244041E0,-5.618075371E0,-1.203719997E1
4.592625815E0,-6.485322952E0,-3.074423790E0,3.446302414E0
4.602653948E0,-6.004016876E0,-2.863123894E0,3.575982094E0
4.612682048E0,-4.188255787E0,-2.343461037E0,1.223895931E1
4.622711248E0,-4.550932884E0,-4.409062386E0,1.313562584E1
4.632740414E0,-5.866772652E0,-6.431013107E0,1.181954670E1
4.642769214E0,-6.384922981E0,-6.862689018E0,1.131844902E1
4.652797980E0,-8.704182625E0,-5.470690727E0,9.324739456E0
4.662826880E0,-8.905176163E0,-2.736034393E0,5.753810883E0
4.672855546E0,-7.986016273E0,-1.145753860E0,2.233355284E0
4.682882946E0,-5.785826206E0,4.999532700E-1,-8.348866701E-1
4.692910146E0,-3.845147848E0,1.399594307E0,-1.500401020E0
4.702938279E0,-3.112390995E0,2.022464275E0,-1.170612574E0
4.712966179E0,-2.654900551E0,2.179379940E0,-5.433338284E-1
4.722993579E0,-2.136688471E0,2.657386780E0,1.351413131E-2
4.733020779E0,-1.679418564E0,2.841886997E0,9.074790031E-2
4.743047979E0,-1.339208007E0,3.080278397E0,2.316922098E-1
4.753075045E0,-1.112979293E0,3.380605698E0,5.760764480E-1
4.763100645E0,-6.670093536E-2,2.410050392E0,4.629629552E-1
4.773126245E0,1.450819492E0,-3.731498718E-1,9.285385013E-1
4.783152845E0,2.067198277E0,-2.842616081E0,1.284857988E0
4.793179578E0,1.004591703E0,-4.638266563E0,1.383475065E0
4.803205944E0,8.959653378E-1,-4.687137604E0,1.145579338E0
4.813232277E0,2.709434032E-1,-4.163360596E0,-7.091486454E-1
4.823258943E0,4.218659401E-1,-2.003536224E0,-8.941299915E-1
4.833285576E0,-1.016052008E0,-1.198405266E0,-5.840504169E-1
4.843311109E0,-1.735672593E0,-1.194195747E0,-9.701289535E-1
4.853336709E0,-6.967756748E-1,-1.159410477E-1,-1.505292296E0
4.863363442E0,3.964836597E-1,6.065874100E-1,-1.600151420E0
4.873390108E0,1.242857695E0,1.087750435E0,-1.141956806E0
4.883416541E0,2.247803450E0,1.527837276E0,7.739162445E-2
4.893443307E0,2.969732523E0,1.598211765E0,9.979137182E-1
4.903470740E0,3.465115309E0,1.396391392E0,1.629644990E0
4.913498306E0,3.020115852E0,1.230365753E0,1.361533880E0
4.923525072E0,1.759974480E0,1.237872124E0,9.812339544E-1
4.933552005E0,8.978185654E-1,1.370934963E0,1.067970634E0
4.943580138E0,1.628003120E-1,1.508782864E0,1.375450015E0
4.953629771E0,-7.246552706E-1,1.279322624E0,1.705914259E0
4.963679304E0,-1.234481096E0,8.551778793E-1,1.682647109E0
4.973729137E0,-1.548080683E0,4.163389206E-1,1.574168086E0
4.983779537E0,-1.571823359E0,-2.529335022E-2,1.332999229E0
4.993830137E0,-1.631591082E0,-4.033336639E-1,1.035574675E0
5.003879937E0,-1.484420538E0,-6.211032867E-1,4.664659500E-1
5.013930037E0,-1.266899467E0,-7.776346207E-1,2.939963341E-2
5.023981203E0,-1.063942671E0,-1.341162682E0,-5.035973787E-1
5.034032536E0,-5.630270243E-1,-1.822927475E0,-8.811621666E-1
5.044083502E0,-8.809649944E-2,-2.435721397E0,-8.656390905E-1
5.054134435E0,3.421468735E-1,-2.843872070E0,-6.616513729E-1
5.064185735E0,9.746369123E-1,-3.016272545E0,-5.390322208E-1
5.074236935E0,1.902603269E0,-2.841534615E0,-1.674362779E0
5.084287168E0,2.942233086E0,-2.691351891E0,-3.137951612E0
5.094337468E0,3.746848583E0,-2.480153084E0,-4.447824001E0
5.104388901E0,4.511436462E0,-2.097184181E0,-6.031851768E0
5.114440534E0,6.589406967E0,-1.320473671E0,-1.235480118E1
5.124491934E0,7.234065533E0,-1.092684746E0,-1.066600323E1
5.134543300E0,7.388345718E0,-2.725620270E0,-7.580310822E0
5.144595033E0,7.446449280E0,-2.679015160E0,-7.474962234E0
5.154646899E0,7.992423058E0,-5.757902145E0,-4.342691422E0
5.164697732E0,8.155442238E0,-5.887743950E0,-5.037756443E0
5.174748598E0,8.075209618E0,-5.315460205E0,-5.351046562E0
5.184800364E0,7.216856003E0,-4.229434967E0,-4.848386765E0
5.194851830E0,5.784934044E0,-3.386096001E0,-4.116434097E0
5.204902763E0,3.581379890E0,-2.859709740E0,-3.716376305E0
5.214953629E0,2.753034115E0,-2.750108719E0,-3.496723413E0
5.225004729E0,2.142436504E0,-3.395309448E0,-3.211080313E0
5.235055729E0,1.504504681E0,-4.177784920E0,-2.594880819E0
5.245105495E0,-3.729748726E-2,-5.220942497E0,-7.575269938E-1
5.255134061E0,-1.965989828E0,-6.436307907E0,1.172743797E0
5.265163961E0,-3.117592812E0,-7.580655098E0,3.171235085E0
5.275193994E0,-4.354175091E0,-8.706353188E0,5.953742027E0
5.285223660E0,-5.711676598E0,-8.919922829E0,8.191384315E0
5.295253426E0,-7.335659981E0,-8.195656776E0,9.442543983E0
5.305283692E0,-7.979949951E0,-6.832334518E0,9.497659683E0
5.315313958E0,-7.892176151E0,-5.109921455E0,7.904448986E0
5.325343291E0,-7.203422546E0,-4.238770485E0,5.653526306E0
5.335372257E0,-6.020044804E0,-3.344398499E0,3.534867287E0
5.345402557E0,-5.119972229E0,-2.503916740E0,2.100008011E0
5.355433190E0,-3.834679127E0,-1.712778091E0,1.509594917E-1
5.365463723E0,-2.781299591E0,-1.197561264E0,3.503694534E-1
5.375494523E0,-1.879779339E0,-7.328395844E-1,2.059127331E0
5.385525689E0,-9.286744595E-1,-3.332977295E-1,3.100361824E0
5.395556889E0,7.825279236E-2,3.285236359E-1,3.520173550E0
5.405587055E0,1.074193478E0,6.855969429E-1,4.470350742E0
5.415617155E0,1.789849758E0,9.115095139E-1,5.259415627E0
5.425648155E0,1.962897778E0,9.759554863E-1,4.911398411E0
5.435679288E0,5.262441635E-1,4.718346596E-1,3.968155622E0
5.445710188E0,-2.011497498E0,2.234940529E-1,3.107661486E0
5.455740788E0,-4.145309925E0,-2.113962173E-1,3.118765593E0
5.465771721E0,-6.257210255E0,-7.206511497E-1,4.058495045E0
5.475802854E0,-7.951522827E0,-1.078916550E0,4.972161770E0
5.485833120E0,-9.222866058E0,-1.129254341E0,5.531420231E0
5.495863420E0,-9.745624542E0,-5.106616020E-1,6.209306717E0
5.505894620E0,-9.906111717E0,3.346166611E-1,6.670747757E0
5.515925886E0,-9.748048782E0,1.579229355E0,6.917484283E0
5.525956819E0,-9.702383041E0,2.636415482E0,7.197003365E0
5.535987952E0,-9.819849014E0,3.539171219E0,7.294357300E0
5.546019685E0,-9.968853951E0,4.083862305E0,7.087526321E0
5.556051451E0,-9.998663902E0,4.187753677E0,6.601961136E0
5.566082051E0,-9.886371613E0,3.992123127E0,5.849371910E0
5.576112484E0,-9.370798111E0,3.887829304E0,4.925268173E0
5.586144084E0,-8.518829346E0,3.736683607E0,4.023316860E0
5.596175750E0,-7.833093643E0,3.384574413E0,3.000567198E0
5.606206916E0,-6.916593552E0,3.129605770E0,1.271661758E0
5.616238049E0,-5.539986134E0,2.559338570E0,-1.291152000E0
5.626269615E0,-2.816648245E0,1.683777332E0,-4.879968643E0
5.636301481E0,-3.455834389E-1,3.086161613E-1,-7.543388367E0
5.646332247E0,2.207112789E0,-1.815936089E0,-7.754752159E0
5.656362880E0,4.909235954E0,-4.907169342E0,-9.291475296E0
5.666394813E0,1.093404007E1,-8.363260269E0,-1.787565422E1
5.676426779E0,1.350255680E1,-1.109255409E1,-8.377882004E0
5.686458445E0,1.292896271E1,-1.449313164E1,-2.135293245E0
5.696490111E0,9.595715523E0,-1.415945053E1,-3.355775356E0
5.706522044E0,5.852417946E0,-8.997339249E0,-4.214571953E0
5.716553810E0,6.448438168E-1,-5.143972397E0,-2.481369734E0
5.726584410E0,-2.266762733E0,-5.613616943E0,1.225602627E-1
5.736614876E0,-2.591094971E0,-5.561868668E0,1.623248816E0
5.746646176E0,-2.264809132E0,-6.108447075E0,2.529246092E0
5.756677609E0,-1.933868766E0,-7.253022194E0,2.429689646E0
5.766708642E0,-1.727205038E0,-8.032179832E0,2.458258867E0
5.776739575E0,-1.038107157E0,-7.183185577E0,-2.124055386E0
5.786770741E0,-1.079358816E0,-3.885597229E0,-4.009723663E0
5.796801874E0,-3.723899364E0,-2.453706741E0,-1.966220021E0
5.806832007E0,-4.907698631E0,1.482896805E-1,2.132861376E0
5.816862040E0,-5.966474533E0,2.033476353E0,5.777485371E0
5.826893073E0,-7.457214355E0,3.551643372E0,8.153134346E0
5.836924039E0,-8.579793930E0,4.758597374E0,8.447958946E0
5.846954539E0,-7.797400951E0,6.589292049E0,9.985211372E0
5.856984872E0,-7.866968155E0,7.548373222E0,1.156774616E1
5.867015372E0,-8.356679916E0,7.135149002E0,1.109982300E1
5.877045938E0,-8.028229713E0,6.187069416E0,9.470314026E0
5.887075271E0,-7.188845634E0,3.725605965E0,6.726646423E0
5.897104637E0,-5.510849953E0,1.367590904E0,3.209007740E0
5.907135203E0,-4.228979111E0,-3.498077393E-1,1.780633807E0
5.917165669E0,-3.716602325E0,-1.908828735E0,1.891921520E0
5.927195702E0,-3.639067650E0,-1.882591248E0,1.871117473E0
5.937225902E0,-3.386046886E0,-3.146807671E0,3.473684788E0
5.947256468E0,-3.015243292E0,-3.139011383E0,3.497536659E0
5.957286901E0,-2.567727089E0,-2.571430206E0,3.065122128E0
5.967315901E0,-2.328478336E0,-1.751632690E0,2.658518076E0
5.977344734E0,-1.847431183E0,-8.100261688E-1,2.474697828E0
5.987374467E0,-1.672804713E0,-3.471136093E-1,2.934707403E0
5.997404200E0,-1.689111829E0,-2.749948502E-1,6.636771202E0
6.007433766E0,-3.345029354E-1,-3.377408981E-1,4.194297314E0
6.017463466E0,8.218152523E-1,-9.694786072E-1,1.556391239E0
6.027493699E0,1.261696339E0,-1.529411316E0,-7.560104132E-1
6.037523799E0,1.192639589E0,-1.930539131E0,-3.177648544E0
6.047552599E0,1.901447773E0,-1.028209686E0,-1.138667488E1
6.057581332E0,2.676405668E0,9.544849396E-1,-1.605985069E1
6.067611198E0,2.224820852E0,2.452857018E0,-9.498550415E0
6.077640998E0,1.728001118E0,2.577542305E0,-5.335989952E0
6.087670464E0,7.893812656E-1,2.060910702E0,-2.500153542E0
6.097699930E0,2.471649647E-1,1.809789658E0,-1.607872128E0
6.107729930E0,-8.669376373E-3,1.237011909E0,-1.204949856E0
6.117759863E0,-1.760375500E-1,5.882616043E-1,-5.195930004E-1
6.127788629E0,-4.975228310E-1,1.545734406E-1,3.461680412E-1
6.137817229E0,-9.178779125E-1,8.909225464E-3,1.307859540E0
6.147846729E0,-1.142392874E0,2.023687363E-1,2.017536640E0
6.157876095E0,-1.407858372E0,4.817142487E-1,2.876979113E0
6.167905028E0,-1.953128099E0,4.870996475E-1,3.438908815E0
6.177933794E0,-2.213688135E0,4.183111191E-1,3.365115404E0
6.187962894E0,-1.933799386E0,4.896297455E-1,2.975488186E0
6.197991794E0,-1.606460214E0,2.816562653E-1,2.648005486E0
6.208019494E0,-1.354546785E0,1.144371033E-1,2.298780441E0
6.218047294E0,-1.037744164E0,2.298355103E-3,1.805964947E0
6.228076094E0,-5.656243563E-1,-2.462244034E-1,9.875497818E-1
6.238104694E0,-1.960158348E-2,-7.029275894E-1,2.076491117E-1
6.248132927E0,7.552628517E-1,-1.398373604E0,-4.801696539E-1
6.258161127E0,1.416182280E0,-2.053792000E0,-9.353225231E-1
6.268189593E0,1.800933480E0,-2.935742378E0,-6.568878889E-1
6.278218059E0,1.982088089E0,-4.027090073E0,2.140559673E0
6.288245392E0,3.018172264E0,-4.136075974E0,1.555451393E0
6.298272725E0,4.396666050E0,-3.726312637E0,-2.308256626E0
6.308300991E0,5.374128819E0,-3.357007980E0,-4.848773479E0
6.318329224E0,6.955566406E0,-2.284326553E0,-9.021585464E0
6.328357057E0,9.539421082E0,-4.205112457E-1,-1.333051872E1
6.338385023E0,9.301827431E0,4.424819946E-1,-1.011281013E1
6.348413689E0,8.754787445E0,2.111902237E-1,-7.469158173E0
6.358442389E0,9.222443581E0,-1.497604370E0,-6.539307594E0
6.368470022E0,1.000727463E1,-4.039672852E0,-8.333589554E0
6.378497722E0,9.952255249E0,-5.056067467E0,-8.749315262E0
6.388526455E0,9.113506317E0,-4.468020439E0,-7.212866306E0
6.398555155E0,8.003367424E0,-3.866444588E0,-5.513050079E0
6.408583321E0,6.384205818E0,-3.432682037E0,-4.336024284E0
6.418611487E0,4.869485378E0,-3.246763229E0,-3.492598295E0
6.428639820E0,4.285622597E0,-3.523748398E0,-3.336219311E0
6.438667953E0,4.154413223E0,-4.523386955E0,-2.560645103E0
6.448694986E0,3.509765863E0,-6.387523651E0,-9.428437948E-1
6.458721852E0,1.860788226E0,-8.278510094E0,1.063837051E0
6.468749952E0,-5.003488064E-1,-1.039096546E1,3.121541262E0
6.478778118E0,-2.688442707E0,-1.286895180E1,5.464909554E0
6.488806018E0,-5.567239761E0,-1.508557034E1,1.066184235E1
6.498833851E0,-8.987211227E0,-1.613135338E1,1.559546566E1
6.508862117E0,-1.177590370E1,-1.470632172E1,1.712083435E1
6.518890150E0,-1.233567429E1,-1.123399353E1,1.309014320E1
6.528917250E0,-1.195739365E1,-8.388988495E0,7.119461060E0
6.538944450E0,-1.073435593E1,-5.499947548E0,-1.192709446E0
6.548972650E0,-8.416973114E0,-2.819405556E0,-1.112950325E1
6.559000883E0,-6.018305779E0,-3.626413345E-1,-9.416564941E0
6.569028816E0,-6.366261482E0,5.893611908E-2,-1.810300112E0
6.579056716E0,-5.381258488E0,8.483238220E-1,3.238293648E0
6.589085116E0,-4.284651279E0,1.056028366E0,6.104050636E0
6.599113616E0,-2.789011240E0,1.581302166E0,7.211496353E0
6.609141249E0,-9.827928543E-1,2.258831978E0,6.727807045E0
6.619168849E0,1.050264835E0,2.950442314E0,5.857343197E0
6.629197582E0,2.445067406E0,3.222051620E0,5.256919861E0
6.639226215E0,2.908510685E0,2.987413406E0,4.613770485E0
6.649254548E0,1.565660954E0,2.175781250E0,3.387501955E0
6.659283014E0,-1.649207354E0,1.383687496E0,2.381901503E0
6.669311780E0,-4.796865940E0,4.657845497E-1,2.644281864E0
6.679340646E0,-7.061280251E0,2.093591690E-1,3.465783596E0
6.689368679E0,-8.788837433E0,4.115967751E-1,4.156840324E0
6.699396779E0,-9.638059616E0,9.846305847E-1,4.537855625E0
6.709425979E0,-9.779994965E0,1.794113636E0,4.934843540E0
6.719455412E0,-9.855451584E0,2.649451733E0,5.323158741E0
6.729484712E0,-9.879894257E0,3.273634911E0,5.813244343E0
6.739514312E0,-1.002132320E1,3.932824612E0,6.484089375E0
6.749544478E0,-1.000761223E1,4.297302246E0,6.772614479E0
6.759574978E0,-9.656057358E0,4.600289345E0,6.543601513E0
6.769604078E0,-8.998203278E0,4.594122410E0,6.353147030E0
6.779633278E0,-7.763302803E0,4.700829506E0,5.933954716E0
6.789663478E0,-6.468705177E0,4.530601501E0,5.257387638E0
6.799693744E0,-5.360681534E0,4.304235935E0,4.139123440E0
6.809723710E0,-4.572919846E0,3.584727764E0,2.073636055E0
6.819754010E0,-3.458062887E0,2.372483730E0,-1.067805290E0
6.829784510E0,-3.337942839E0,2.509267330E0,-1.236101389E0
6.839815043E0,1.842031002E0,-2.395632744E0,-1.127601719E1
6.849844576E0,5.581303596E0,-6.133799553E0,-1.491488075E1
6.859874242E0,1.014495468E1,-1.024789333E1,-1.983143616E1
6.869905242E0,1.187172508E1,-1.340614128E1,-1.129150867E1
6.879936342E0,1.090723991E1,-1.452805042E1,-5.504409790E0
6.889970675E0,7.648059845E0,-1.289654255E1,-4.931802750E0
6.900005008E0,4.686504841E0,-7.110377312E0,-5.188282967E0
6.910039741E0,1.301650763E0,-6.122817993E-1,-3.638684511E0
6.920074507E0,-1.539161444E0,9.558677673E-3,-2.861065149E0
6.930108140E0,-3.772873163E0,-3.872099876E0,6.248235703E-1
6.940141906E0,-3.415934563E0,-5.311928749E0,3.898727894E0
6.950176639E0,-2.853504181E0,-6.994850159E0,4.239026070E0
6.960211205E0,-1.581486344E0,-8.717845917E0,5.197862148E0
6.970245305E0,-1.020169735E0,-9.718035698E0,6.870146751E0
6.980279271E0,-9.145135880E-1,-7.811073303E0,3.737126350E0
6.990313437E0,-2.637690544E0,-5.851002693E0,1.980226398E0
7.000347603E0,-4.897140503E0,-3.229908943E0,1.356647253E0
7.010380736E0,-6.126773357E0,3.232774734E-1,3.657615423E0
7.020413836E0,-8.621664047E0,3.369029999E0,5.935397148E0
7.030448002E0,-9.911808014E0,4.807133675E0,6.441292286E0
7.040482235E0,-9.641302109E0,6.534639359E0,7.969231129E0
7.050516035E0,-8.970314026E0,7.499490738E0,9.047012329E0
7.060549868E0,-8.223165512E0,7.753866673E0,9.369332314E0
7.070584268E0,-7.710204601E0,6.706332207E0,8.084798813E0
7.080618701E0,-7.575930595E0,6.770796776E0,7.860952377E0
7.090651901E0,-4.981401443E0,1.546654701E0,1.568346262E0
7.100685001E0,-3.597259998E0,-3.564176559E-1,3.364519477E-1
7.110718901E0,-2.899844646E0,-1.988030434E0,7.885162234E-1
7.120752567E0,-2.639396191E0,-2.907958031E0,2.170766115E0
7.130785733E0,-2.360032797E0,-3.287742615E0,3.226005554E0
7.140818733E0,-1.763912201E0,-2.965882301E0,3.273080111E0
7.150851999E0,-1.323675752E0,-2.332654953E0,2.907545805E0
7.160885032E0,-1.147505999E0,-1.502831459E0,2.768597126E0
7.170916765E0,-1.339047790E0,-1.187017441E0,6.406682014E0
7.180948431E0,-4.077978134E-1,-3.851747513E-1,6.241653919E0
7.190977497E0,7.140066624E-1,-5.592002869E-1,3.058298826E0
7.201006263E0,1.095880508E0,-1.007898331E0,6.337777972E-1
7.211034396E0,1.124131203E0,-9.547357559E-1,-1.060960174E0
7.221062229E0,1.226608515E0,-8.000497818E-1,-4.443624496E0
7.231090529E0,2.639415026E0,4.128494263E-1,-1.514564896E1
7.241118862E0,3.224043131E0,2.125222206E0,-1.450102997E1
7.251146162E0,2.652760744E0,2.794643879E0,-8.725305557E0
7.261173528E0,1.701082230E0,2.085801125E0,-4.326768398E0
7.271202128E0,5.172171593E-1,1.323123932E0,-2.014428616E0
7.281230828E0,-9.044551849E-2,1.212631226E0,-1.220965028E0
7.291259261E0,-7.097744942E-1,9.164466858E-1,-9.216650128E-1
7.301287661E0,-8.684896231E-1,8.320550919E-1,-5.509279370E-1
7.311316161E0,-1.112609744E0,8.226356506E-1,2.244548798E-1
7.321344494E0,-1.550087214E0,6.321363449E-1,9.704977274E-1
7.331371794E0,-2.085706472E0,3.603353500E-1,1.739024282E0
7.341398994E0,-2.710227728E0,1.577043533E-1,2.277076244E0
7.351427194E0,-3.050172329E0,2.856197357E-1,2.771277428E0
7.361455194E0,-3.501198292E0,3.997621536E-1,3.343523026E0
7.371482827E0,-3.483883858E0,4.403820038E-1,3.543517113E0
7.381510260E0,-2.912286997E0,6.253452301E-1,3.784401178E0
7.391538226E0,-2.650742054E0,4.748620987E-1,3.872633934E0
7.401566226E0,-2.574708939E0,2.739601135E-1,3.689774990E0
7.411593226E0,-2.292724371E0,-4.771232605E-3,2.750548601E0
7.421620226E0,-1.417193890E0,-2.342443466E-1,1.518793464E0
7.431648359E0,-3.720052242E-1,-6.364316940E-1,-1.167118549E-2
7.441676559E0,6.191155910E-1,-1.301973343E0,-1.103878736E0
7.451704359E0,1.538657546E0,-2.134448051E0,-1.649666905E0
7.461732292E0,2.027817488E0,-3.515803337E0,4.025678635E-1
7.471760392E0,2.820892096E0,-4.506649971E0,2.604801416E0
7.481788358E0,4.853983879E0,-4.841943741E0,-1.362017632E0
7.491815191E0,6.593997955E0,-4.797196388E0,-5.024590969E0
7.501842191E0,9.890641212E0,-3.158552170E0,-1.448729801E1
7.511870024E0,1.184789658E1,-6.396102905E-2,-1.482865334E1
7.521898224E0,1.055695915E1,5.876684189E-1,-8.993793488E0
7.531925957E0,9.556161880E0,2.244386673E-1,-5.434060097E0
7.541953557E0,9.609268188E0,-1.739305496E0,-5.842773438E0
7.551981590E0,9.990088463E0,-4.394869804E0,-8.824528694E0
7.562009656E0,1.002318764E1,-5.395125389E0,-9.373344421E0
7.572036622E0,9.372738838E0,-4.355930328E0,-7.236478806E0
7.582063588E0,7.795995235E0,-4.274479866E0,-5.074654102E0
7.592091554E0,5.232059956E0,-4.578068733E0,-4.181875229E0
7.602119487E0,4.173763275E0,-4.736601830E0,-3.249802113E0
7.612147287E0,4.322656155E0,-5.245702744E0,-1.847572565E0
7.622175187E0,4.142045021E0,-6.604079247E0,-6.129697561E-1
7.632203420E0,3.031115770E0,-8.237383842E0,8.188549876E-1
7.642231586E0,8.861078024E-1,-9.750240326E0,1.948780775E0
7.652258686E0,-1.326099873E0,-1.124718475E1,3.191410542E0
7.662285719E0,-4.197255135E0,-1.315295506E1,6.467228413E0
7.672313819E0,-7.571494102E0,-1.500304890E1,1.180887699E1
7.682341919E0,-1.088531208E1,-1.494278145E1,1.538780689E1
7.692369519E0,-1.251281834E1,-1.201421928E1,1.522040558E1
7.702397152E0,-1.247674656E1,-8.577077866E0,1.129216003E1
7.712425352E0,-1.137845135E1,-4.966679573E0,5.771667957E0
7.722453485E0,-1.008775902E1,-2.861791611E0,1.863980770E0
7.732480551E0,-7.623660088E0,-9.018249512E-1,-4.789577484E0
7.742507451E0,-4.332252502E0,2.040552616E0,-9.265404701E0
7.752535417E0,-4.414282322E0,2.018645763E0,-9.460481644E0
7.762563283E0,-4.338412285E0,2.171518326E0,-1.081047535E0
7.772590883E0,-4.251529217E0,1.747111320E0,2.496446848E0
7.782618683E0,-3.721796513E0,1.918909550E0,4.866435051E0
7.792646716E0,-2.516566515E0,2.285997391E0,5.985517025E0
7.802674549E0,-1.464095592E0,2.505750656E0,6.475785255E0
7.812701349E0,-8.030452728E-1,2.506817341E0,5.488090992E0
7.822727915E0,-2.818622589E-1,2.459848881E0,3.909991264E0
7.832755315E0,-6.880569458E-2,2.079548836E0,2.170420408E0
7.842782548E0,-4.943647385E-1,1.449255943E0,1.228194475E0
7.852809081E0,-2.227241755E0,9.703307152E-1,1.423114896E0
7.862835314E0,-3.850838423E0,5.694284439E-1,1.833679199E0
7.872861514E0,-5.529276371E0,2.138652802E-1,2.529109955E0
7.882887447E0,-6.667679310E0,3.451623917E-1,3.157160759E0
7.892921447E0,-7.885305405E0,7.368431091E-1,3.921065331E0
7.902955347E0,-9.097426414E0,1.056871414E0,5.126754761E0
7.912990313E0,-1.030888939E1,1.486607075E0,6.737531662E0
7.923025113E0,-1.108452702E1,2.110359192E0,7.657182693E0
7.933059413E0,-1.121495056E1,3.059321404E0,7.525452614E0
7.943093579E0,-1.080472469E1,3.700409412E0,6.572996140E0
7.953128045E0,-1.016987038E1,3.792995930E0,5.702373505E0
7.963183711E0,-9.217163086E0,3.499559879E0,4.654941082E0
7.973238211E0,-8.339111328E0,3.234364033E0,3.847559929E0
7.983292644E0,-7.505966187E0,3.064302444E0,2.936215878E0
7.993348110E0,-6.745283127E0,2.842130184E0,1.773806572E0
8.003403510E0,-5.981691837E0,2.544820309E0,6.073966026E-1
8.013458276E0,-4.103816986E0,1.773658752E0,-1.394331932E0
8.023512976E0,-1.000725508E0,1.076658249E0,-3.940775871E0
8.033567876E0,2.470146179E0,-5.865392685E-1,-6.476988792E0
8.043622676E0,5.872833729E0,-4.134078979E0,-1.220369816E1
8.053676109E0,1.156896496E1,-8.275891304E0,-2.198204422E1
8.063729342E0,1.513871956E1,-1.098604393E1,-1.353419495E1
8.073783608E0,1.720701218E1,-1.097449112E1,-4.913442612E0
8.083837374E0,1.655631256E1,-1.082692432E1,-5.588520527E0
8.093890740E0,1.055795288E1,-9.226179123E0,-4.623887539E0
8.103943840E0,3.703004360E0,-4.185281754E0,-9.855635166E-1
8.113997073E0,-3.952479362E-2,-1.390098572E0,4.334808588E-1
8.124050106E0,-2.977935553E0,-3.112837791E0,2.256014824E0
8.134101939E0,-3.297324896E0,-4.133568764E0,3.180497646E0
8.144153639E0,-2.946122885E0,-6.015141487E0,3.690548897E0
8.154206272E0,-2.636077404E0,-1.026613998E1,3.480178595E0
8.164258872E0,-2.801113129E0,-1.402291393E1,4.790531635E0
8.174311072E0,-3.787291765E0,-1.291097546E1,1.839665174E0
8.184363372E0,-5.051036358E0,-6.523092270E0,-1.101505756E0
8.194406805E0,-6.502004623E0,-2.673968315E0,-1.066504717E0
8.204450238E0,-8.073749542E0,5.518236160E-1,-7.113263607E-1
8.214492471E0,-9.687625885E0,3.831394196E0,2.726303101E0
8.224534771E0,-1.126186371E1,5.623590469E0,5.469717026E0
8.234578071E0,-1.102010155E1,6.865904808E0,5.540946960E0
8.244621371E0,-9.873810768E0,7.969738483E0,7.240670204E0
8.254664237E0,-9.120803833E0,8.537505150E0,8.670376778E0
8.264685670E0,-8.614156723E0,8.373217583E0,8.716030121E0
8.274707236E0,-7.948987961E0,6.590662956E0,7.063650131E0
8.284728569E0,-6.420317650E0,2.975258827E0,2.797443867E0
8.294748735E0,-5.045108795E0,2.167024612E-1,8.582727909E-1
8.304768701E0,-4.133176804E0,-1.882120132E0,1.043489456E0
8.314789567E0,-3.899396896E0,-3.361221313E0,2.206773520E0
8.324810433E0,-3.529221535E0,-3.971893311E0,3.299040079E0
8.334830899E0,-2.828811884E0,-3.890314102E0,3.624197960E0
8.344851465E0,-2.358584881E0,-3.163297653E0,3.865121603E0
8.354872398E0,-1.642300248E0,-1.895501137E0,3.211787224E0
8.364893464E0,-1.278935552E0,-1.238055229E0,2.839532614E0
8.374913430E0,-1.501362324E0,-1.209901810E0,5.756642818E0
8.384933430E0,-3.253509998E-1,-4.353981018E-1,4.960713863E0
8.394954496E0,9.450078011E-1,-6.362438202E-1,2.388163567E0
8.404975696E0,1.557297945E0,-7.463808060E-1,4.168076515E-1
8.414996796E0,1.544627428E0,-8.820257187E-1,-1.365008593E0
8.425018029E0,1.257706881E0,-8.436012268E-1,-3.465455532E0
8.435039829E0,1.488004208E0,-5.799198151E-2,-5.176879883E0
8.445061829E0,2.423462391E0,1.663269043E0,-9.059481621E0
8.455082962E0,2.731648207E0,2.780362606E0,-9.692284584E0
8.465104028E0,2.253894806E0,2.837635517E0,-7.331809044E0
8.475126361E0,1.433273435E0,2.176641464E0,-5.068494797E0
8.485148361E0,6.319009066E-1,1.566911697E0,-3.304907322E0
8.495169827E0,2.440083027E-1,1.129588127E0,-2.526796341E0
8.505191160E0,1.724457741E-2,8.808031082E-1,-1.842887640E0
8.515212960E0,-1.392874718E-1,6.057472229E-1,-8.556219935E-1
8.525234793E0,-4.821466208E-1,2.684307098E-1,2.658948898E-1
8.535255793E0,-9.955641627E-1,1.073980331E-1,1.539728642E0
8.545276859E0,-1.565952897E0,7.410144806E-2,2.691372871E0
8.555298825E0,-2.169066429E0,5.594730377E-2,3.456048965E0
8.565320858E0,-2.303231716E0,2.372951508E-1,3.881137848E0
8.575342724E0,-2.286015749E0,3.520269394E-1,4.194820404E0
8.585364690E0,-1.903214693E0,5.361461639E-1,4.421046257E0
8.595387190E0,-1.824668884E0,4.942617416E-1,4.322374344E0
8.605409790E0,-1.701938391E0,2.253742218E-1,3.598546028E0
8.615431423E0,-1.068084240E0,-1.365642548E-1,2.234168291E0
8.625453123E0,-2.273506522E-1,-6.295194626E-1,7.606415749E-1
8.635475823E0,5.725955963E-1,-1.216674805E0,-3.296544552E-1
8.645498456E0,1.366735697E0,-1.985305786E0,-1.104660034E0
8.655520956E0,1.929411769E0,-2.650914192E0,-1.385305285E0
8.665543522E0,2.220033169E0,-3.398979187E0,9.516596794E-1
8.675566588E0,2.614448309E0,-3.984917641E0,3.015396357E0
8.685589954E0,4.020451069E0,-3.864789009E0,-9.102087021E-1
8.695612354E0,5.036370754E0,-3.624311447E0,-4.702167988E0
8.705634720E0,6.152308464E0,-2.690315247E0,-1.101386642E1
8.715658020E0,8.889016151E0,-3.850545883E-1,-1.648155403E1
8.725681320E0,8.366194725E0,1.375322342E-1,-1.020113182E1
8.735704153E0,7.661639214E0,-8.514719009E-1,-6.326492310E0
8.745726853E0,7.512655735E0,-2.819010735E0,-4.551337242E0
8.755749719E0,8.263856888E0,-5.004211426E0,-4.938955307E0
8.765772652E0,9.150608063E0,-5.449495316E0,-6.439561844E0
8.775794385E0,9.425580025E0,-4.148736000E0,-6.402945518E0
8.785816318E0,8.616003990E0,-2.981328964E0,-4.905881882E0
8.795839384E0,7.274486542E0,-2.771024704E0,-4.001115799E0
8.805862384E0,5.534697056E0,-3.124117851E0,-3.292021513E0
8.815884817E0,4.059113503E0,-3.434242249E0,-2.790773630E0
8.825906983E0,3.415998459E0,-4.003097534E0,-2.726177692E0
8.835929016E0,2.760428429E0,-4.908900261E0,-2.483129501E0
8.845950816E0,1.325352907E0,-5.894909859E0,-1.644372344E0
8.855971616E0,-9.336831570E-1,-7.056244850E0,-7.391595840E-2
8.865992349E0,-2.402708769E0,-8.430076599E0,6.215648651E-1
8.876014115E0,-3.625926971E0,-1.019112396E1,2.824426651E0
8.886035915E0,-5.750003338E0,-1.208931923E1,6.685482025E0
8.896058015E0,-8.778675079E0,-1.306636429E1,1.114633656E1
8.906080148E0,-1.130333424E1,-1.208847237E1,1.307696247E1
8.916102814E0,-1.208865738E1,-9.323370934E0,1.159525204E1
8.926125314E0,-1.137776756E1,-6.572305679E0,7.140504360E0
8.936146847E0,-9.658733368E0,-3.979593277E0,2.195543051E0
8.946168280E0,-7.600442886E0,-2.037186623E0,-2.950284481E0
8.956190546E0,-5.653042793E0,-4.777803421E-1,-5.389550686E0
8.966212512E0,-4.388966560E0,7.540426254E-1,-2.666777849E0
8.976234378E0,-3.767418861E0,8.329854012E-1,1.035799146E0
8.986256078E0,-2.948872566E0,7.717962265E-1,3.716926813E0
8.996278044E0,-2.060220242E0,9.366054535E-1,5.289630890E0
9.006300077E0,-4.053726196E-1,1.557012558E0,5.145513058E0
9.016321077E0,7.011909485E-1,1.945506573E0,5.050468445E0
9.026342010E0,1.499783993E0,2.161684513E0,5.263149738E0
9.036363910E0,1.987961769E0,2.217335701E0,5.169634819E0
9.046385743E0,1.473038197E0,1.998021603E0,4.776870728E0
9.056407243E0,-9.925847054E-1,1.557422161E0,3.157285690E0
9.066428609E0,-3.285395145E0,1.137938023E0,2.021048784E0
9.076450375E0,-5.555709839E0,7.538604736E-1,2.661033630E0
9.086472175E0,-7.421857834E0,5.255594254E-1,3.449424982E0
9.096492741E0,-8.721231461E0,7.434010506E-1,3.968888998E0
9.106513241E0,-9.426918030E0,1.279767513E0,3.802392244E0
9.116534674E0,-1.003662300E1,2.021787643E0,3.995831490E0
9.126556040E0,-1.043062782E1,2.959456444E0,4.555086613E0
9.136577173E0,-1.058193588E1,3.870413303E0,5.164681911E0
9.146598339E0,-1.060040283E1,4.647179604E0,5.781438828E0
9.156619839E0,-1.057568550E1,5.193190098E0,6.123544693E0
9.166641372E0,-9.942462921E0,5.197707176E0,5.658195972E0
9.176661772E0,-8.976161957E0,5.079256058E0,5.052748203E0
9.186682072E0,-7.729965210E0,4.726864815E0,4.134960651E0
9.196702505E0,-6.649126053E0,4.326831818E0,3.098560572E0
9.206722671E0,-5.745265961E0,3.888206959E0,2.172835588E0
9.216742071E0,-4.552842617E0,2.988019943E0,1.876065731E-1
9.226761571E0,-2.504812717E0,1.984445572E0,-2.027530193E0
9.236781304E0,7.175898552E-1,1.397886276E-1,-5.283983231E0
9.246801070E0,3.571142673E0,-2.835031509E0,-7.149080276E0
9.256819903E0,7.392752647E0,-8.761236191E0,-1.500526524E1
9.266838836E0,1.284518433E1,-1.318886471E1,-1.976567268E1
9.276858602E0,1.537324619E1,-1.517907143E1,-9.647604942E0
9.286878468E0,1.481108284E1,-1.528102970E1,-7.282042027E0
9.296898134E0,1.159213066E1,-1.180931568E1,-7.639731884E0
9.306917800E0,5.790910721E0,-4.712865829E0,-5.913353443E0
9.316937833E0,2.072057962E0,-4.917411804E-1,-3.472747803E0
9.326957833E0,-1.543434262E0,-1.825903893E0,-3.668808937E-2
9.336976733E0,-3.304767132E0,-4.522818565E0,2.484608650E0
9.346995599E0,-2.643835068E0,-5.350423813E0,3.171408176E0
9.357015532E0,-2.027004004E0,-6.470181465E0,3.282170534E0
9.367035465E0,-1.988020658E0,-8.050735474E0,3.848336697E0
9.377054931E0,-2.338917255E0,-8.302034378E0,5.199775696E0
9.387074264E0,-3.715071917E0,-5.907704353E0,4.342932224E0
9.397093964E0,-5.472160339E0,-2.569448471E0,3.134755135E0
9.407113730E0,-6.905661583E0,-1.698321342E0,2.573055983E0
9.417132396E0,-8.813272476E0,6.818103790E-2,3.425836086E0
9.427151029E0,-9.845439911E0,2.109505653E0,3.118479729E0
9.437170662E0,-9.997106552E0,3.993314743E0,3.723046780E0
9.447190228E0,-9.849237442E0,5.161729336E0,5.000401020E0
9.457209561E0,-9.431135178E0,5.785246849E0,5.515399933E0
9.467228994E0,-8.934579849E0,5.863303185E0,5.579453945E0
9.477248694E0,-8.456008911E0,5.392700195E0,5.678384781E0
9.487268327E0,-8.046543121E0,3.693815708E0,5.376868248E0
9.497286827E0,-7.152193069E0,1.613178730E0,4.612291336E0
9.507305360E0,-5.519230843E0,-5.341691971E-1,2.823545933E0
9.517324993E0,-4.615576267E0,-1.729871750E0,2.116168261E0
9.527344526E0,-3.859061718E0,-2.322015762E0,2.280940294E0
9.537363759E0,-3.041578054E0,-2.434731483E0,2.648039579E0
9.547382925E0,-2.282475710E0,-2.141399384E0,2.827685356E0
9.557402258E0,-1.525262117E0,-1.523009300E0,2.868187189E0
9.567421524E0,-7.121102810E-1,-1.191435814E0,2.276575327E0
9.577439357E0,-3.354711533E-1,-1.287493706E0,1.782889366E0
9.587457023E0,-4.016129971E-1,-1.139291763E0,4.313998222E0
9.597475523E0,8.314843178E-1,-3.938684464E-1,5.268239975E0
9.607493956E0,2.156235456E0,-2.877044678E-2,3.151346684E0
9.617511889E0,3.226409674E0,1.208019257E-2,3.856166899E-1
9.627529789E0,3.470643282E0,-3.363704681E-2,-2.443201542E0
9.637547989E0,3.962280750E0,1.809120178E-1,-6.426327705E0
9.647566189E0,4.830399036E0,1.114003181E0,-1.277918625E1
9.657583189E0,4.556009293E0,2.447113037E0,-1.333783245E1
9.667600289E0,3.304665089E0,2.528391838E0,-8.897627831E0
9.677618789E0,1.958931923E0,1.842560291E0,-5.516772270E0
9.687637289E0,9.153244495E-1,1.203156471E0,-2.781190395E0
9.697655555E0,-5.199086666E-2,6.704225540E-1,-1.403817892E0
9.707673921E0,-5.163012147E-1,5.048570633E-1,-6.685559750E-1
9.717692721E0,-6.374620795E-1,5.536775589E-1,-2.953014374E-1
9.727711721E0,-8.788400292E-1,5.979156494E-1,6.157934666E-2
9.737729821E0,-1.129573464E0,6.387710571E-1,4.681724310E-1
9.747748121E0,-1.209992766E0,7.056264877E-1,9.320651293E-1
9.757767521E0,-1.304444432E0,6.289129257E-1,1.521000862E0
9.767786921E0,-1.478713274E0,5.999336243E-1,2.164704800E0
9.777805987E0,-1.568918943E0,6.016359329E-1,2.573575258E0
9.787825153E0,-1.478431225E0,6.815576553E-1,3.054759502E0
9.797845019E0,-1.328641653E0,7.530317307E-1,3.377547264E0
9.807864952E0,-7.739055157E-1,4.630613327E-1,3.352404118E0
9.817884185E0,-1.567736864E-1,-1.899423599E-1,3.079090595E0
9.827903618E0,5.015916824E-1,-1.310784340E0,2.006002188E0
9.837924251E0,1.434471846E0,-2.204126358E0,8.830456734E-1
9.847945084E0,2.467034578E0,-2.711170197E0,3.485896587E-1
9.857965717E0,3.157910824E0,-2.975654602E0,9.099638462E-1
9.867986283E0,3.815284252E0,-3.085163116E0,8.511469364E-1
9.878007216E0,4.807944298E0,-3.360197067E0,-1.694457650E0
9.888028082E0,6.072437763E0,-3.554470062E0,-6.950368404E0
9.898048248E0,9.145829201E0,-1.796984673E0,-1.625094604E1
9.908068314E0,9.878450394E0,-2.758884430E-2,-1.251111126E1
9.918089647E0,9.814194679E0,-4.717493057E-1,-8.474963188E0
9.928111080E0,1.043171787E1,-2.455862999E0,-6.712741852E0
9.938132280E0,1.116947460E1,-5.368799210E0,-9.405995369E0
9.948153680E0,1.094464016E1,-5.956110001E0,-1.274227333E1
9.958175780E0,9.835733414E0,-5.776418686E0,-1.187001038E1
9.968198013E0,7.739178658E0,-5.682858467E0,-8.745800972E0
9.978219013E0,6.163600445E0,-5.274072647E0,-3.215803146E0
9.988240246E0,5.593626022E0,-5.386600494E0,-1.308573246E0
9.998262479E0,4.704682827E0,-5.719670296E0,3.114759922E-1
1.000828471E1,3.388036489E0,-6.607514381E0,1.866238475E0
1.001830658E1,2.061419249E0,-7.717678070E0,3.582643986E0
1.002832838E1,-4.766975045E-1,-9.606100082E0,5.600730896E0
1.003835064E1,-3.546599388E0,-1.188805580E1,7.896805286E0
1.004837284E1,-6.823532104E0,-1.420886803E1,1.037833977E1
1.005839388E1,-9.296799660E0,-1.524689674E1,1.299113369E1
1.006841474E1,-1.129367638E1,-1.422737312E1,1.447813511E1
1.007843691E1,-1.188840294E1,-1.127531528E1,1.082838726E1
1.008845908E1,-1.199337959E1,-8.511844635E0,5.040600300E0
1.009848071E1,-1.020309067E1,-5.136189461E0,-1.844517946E0
1.010850247E1,-7.937204361E0,-1.944182396E0,-1.399351215E1
1.011852434E1,-5.780223846E0,6.251525879E-1,-1.388440895E1
1.012854607E1,-6.803611755E0,1.145945072E0,-5.334506989E0
1.013856664E1,-7.086147308E0,1.375489712E0,1.681568384E0
1.014858714E1,-6.497159481E0,1.480965614E0,5.293789387E0
1.015860867E1,-5.070802212E0,1.767553329E0,7.032107353E0
1.016863024E1,-4.445246220E0,1.928856373E0,6.796005249E0
1.017865154E1,-4.037514210E0,2.089030743E0,5.800981045E0
1.018867290E1,-2.950489283E0,2.186629772E0,3.682888985E0
1.019869424E1,-2.322355270E0,1.774692535E0,1.748018026E0
1.020871567E1,-2.039295435E0,1.413564682E0,8.499853611E-1
1.021873574E1,-2.070096970E0,7.824473381E-1,8.020693064E-1
1.022875554E1,-2.624652863E0,1.507244110E-1,1.375523090E0
1.023877620E1,-3.481962681E0,8.971929550E-2,2.450540304E0
1.024879667E1,-4.421031475E0,1.302652359E-1,3.321076870E0
1.025881640E1,-5.584157944E0,3.312721252E-1,3.983490944E0
1.026883590E1,-6.920294762E0,5.337257385E-1,4.514056206E0
1.027885553E1,-8.229726791E0,8.112301826E-1,5.371054649E0
1.028887507E1,-9.251441956E0,1.424369812E0,5.583520412E0
1.029889357E1,-1.019186401E1,2.231961727E0,5.919560909E0
1.030891207E1,-1.064708328E1,3.172539234E0,6.187657356E0
1.031893163E1,-1.073217964E1,4.457474709E0,6.217149734E0
1.032895130E1,-1.032801628E1,5.358902931E0,5.813446999E0
1.033897063E1,-9.717498779E0,5.678221226E0,5.374011040E0
1.034899003E1,-9.002151489E0,5.497158051E0,4.947147846E0
1.035900993E1,-8.130856514E0,5.123721123E0,4.107760906E0
1.036903006E1,-7.187235832E0,4.598706245E0,2.602062225E0
1.037904906E1,-5.892025471E0,3.927894115E0,1.679980755E-1
1.038906817E1,-2.702868462E0,2.789689541E0,-2.661817551E0
1.039908827E1,2.901391983E-1,1.458574295E0,-5.018686295E0
1.040910823E1,3.638339520E0,-1.049404144E0,-9.310788155E0
1.041912776E1,7.670309067E0,-4.469428062E0,-1.507534218E1
1.042914716E1,1.103503609E1,-8.323426247E0,-1.472715092E1
1.043916673E1,1.398669243E1,-1.093984699E1,-1.038462067E1
1.044918613E1,1.641050148E1,-1.020006943E1,-7.337508202E0
1.045920436E1,1.584641171E1,-9.544483185E0,-7.902129173E0
1.046922260E1,9.818380356E0,-8.598995209E0,-6.111636639E0
1.047924196E1,1.449024200E0,-8.664572716E0,-1.936049223E0
1.048926126E1,-1.420174479E0,-9.160363197E0,1.157715201E0
1.049928020E1,-2.173586130E0,-8.762075424E0,3.619239807E0
1.050929913E1,-2.888395309E0,-9.529559135E0,5.674032211E0
1.051931863E1,-3.950283051E0,-9.827986717E0,6.270502090E0
1.052933819E1,-5.523099899E0,-9.250776291E0,5.662354469E0
1.053935686E1,-7.381495476E0,-7.413279533E0,3.310801983E-1
1.054937543E1,-9.038013458E0,-4.045944214E0,-3.139687538E0
1.055939503E1,-9.749797821E0,-1.392480850E0,-2.924518347E0
1.056941446E1,-1.131380558E1,1.070463181E0,6.539554596E-1
1.057943352E1,-1.174065018E1,3.191630840E0,4.579918385E0
1.058945239E1,-1.268015671E1,4.294532299E0,6.146894455E0
1.059947139E1,-1.269093418E1,5.825157166E0,9.595322609E0
1.060949019E1,-1.128038883E1,6.907730103E0,1.196307278E1
1.061950786E1,-9.553885460E0,7.372220516E0,9.992873192E0
1.062952509E1,-7.498393536E0,6.917460918E0,7.445713520E0
1.063954292E1,-7.268715382E0,6.999220371E0,7.266351223E0
1.064956039E1,-3.067732573E0,2.488046646E0,2.641392469E0
1.065957706E1,-2.366194963E0,5.254831314E-1,3.184281826E0
1.066959329E1,-1.771708488E0,-1.193937302E0,4.343011856E0
1.067960962E1,-6.408065557E-1,-2.491636276E0,5.277929783E0
1.068962572E1,7.469866276E-1,-3.309335709E0,5.539342880E0
1.069964072E1,1.147356987E0,-3.467749596E0,4.550376892E0
1.070965565E1,1.229775906E0,-3.293549538E0,3.723041534E0
1.071967159E1,5.848482847E-1,-3.710990906E0,1.255133724E1
1.072968749E1,2.523945332E0,-2.654560089E0,8.741806984E0
1.073970315E1,4.328516006E0,-2.477720261E0,3.987302065E0
1.074971869E1,4.960084915E0,-2.131304741E0,-1.436968148E-1
1.075973455E1,4.695431709E0,-9.335680008E-1,-4.038071632E0
1.076975035E1,4.667524815E0,1.210964203E0,-1.019904518E1
1.077976495E1,4.404513836E0,3.146142483E0,-1.753793716E1
1.078977965E1,3.880666971E0,4.392748356E0,-1.502683544E1
1.079979539E1,2.916059971E0,4.046651363E0,-1.036917877E1
1.080981102E1,1.313871145E0,2.370446205E0,-6.971969604E0
1.081982615E1,-4.501703978E-1,5.773487091E-1,-4.352966785E0
1.082984125E1,-1.139309168E0,-1.034698486E-1,-2.720517159E0
1.083985675E1,-1.494131446E0,-2.217645645E-1,-1.226922870E0
1.084987225E1,-1.057076812E0,-4.222297668E-2,8.661067486E-2
1.085988678E1,-6.891653538E-1,2.384815216E-1,9.513195753E-1
1.086990148E1,-6.034033895E-1,6.765232086E-1,1.916430473E0
1.087991738E1,-8.782634735E-1,7.636222839E-1,2.411682606E0
1.088993328E1,-1.426510811E0,6.481924057E-1,2.776347637E0
1.089994942E1,-1.780624866E0,8.603210449E-1,3.607041836E0
1.090996575E1,-1.928728223E0,1.142518044E0,4.498100281E0
1.091998275E1,-2.013665199E0,1.348590851E0,4.947409153E0
1.093000002E1,-2.031438112E0,9.623546600E-1,5.979526520E0
1.094001645E1,-2.183363914E0,1.554727554E-1,6.311973095E0
1.095003305E1,-2.235153675E0,-4.269227982E-1,4.802770138E0
1.096005092E1,-1.770699024E0,-5.386543274E-1,2.776818275E0
1.097009025E1,-8.608759642E-1,-3.091926575E-1,1.021596074E0
1.098012918E1,2.973169088E-2,-2.946548462E-1,-2.287993431E-1
1.099016831E1,7.691238523E-1,-6.171789169E-1,-1.012327671E0
1.100020785E1,8.889838457E-1,-6.365489960E-1,-1.148736954E0
1.101024738E1,1.796801329E0,-2.538084030E0,5.074177980E-1
1.102028591E1,2.650616884E0,-3.854595184E0,2.383211374E0
1.103032461E1,4.012757778E0,-4.401020050E0,-1.296692014E0
1.104036435E1,5.299393654E0,-4.502021790E0,-5.386250019E0
1.105040438E1,7.945141792E0,-3.326866150E0,-1.520151424E1
1.106044425E1,8.843920708E0,-8.113794327E-1,-1.325270653E1
1.107048438E1,8.908518791E0,-3.437976837E-1,-9.797958374E0
1.108052494E1,8.171115875E0,-1.278800011E0,-8.229552269E0
1.109056574E1,7.766104698E0,-2.125892639E0,-8.989534378E0
1.110060564E1,7.749468803E0,-2.098446846E0,-8.891593933E0
1.111064571E1,9.714519501E0,-4.225851059E0,-7.863708973E0
1.112068694E1,9.471954346E0,-4.255975723E0,-5.066761017E0
1.113072838E1,8.608836174E0,-3.966068268E0,-3.558448076E0
1.114076931E1,7.205364704E0,-3.183468819E0,-2.981263161E0
1.115081028E1,6.018068790E0,-2.848909378E0,-2.321732998E0
1.116085151E1,5.349246979E0,-3.040490150E0,-1.421241879E0
1.117089271E1,5.263345718E0,-4.385404587E0,-6.611319780E-1
1.118093281E1,4.680263996E0,-6.019371986E0,8.046645522E-1
1.119097304E1,3.446772575E0,-7.741616249E0,2.365850210E0
1.120101377E1,3.084212542E0,-7.784597397E0,2.747718334E0
1.121105451E1,-2.082292318E0,-1.191351986E1,7.282187462E0
1.122109457E1,-5.544983864E0,-1.335805321E1,1.073319912E1
1.123113457E1,-8.089133263E0,-1.291732979E1,1.239498329E1
1.124117491E1,-9.198450089E0,-1.057131100E1,1.178812122E1
1.125121527E1,-9.348615646E0,-8.242250443E0,8.168234825E0
1.126125467E1,-8.792967796E0,-6.264821053E0,3.621280909E0
1.127127301E1,-9.054315567E0,-6.341349602E0,3.516269684E0
1.128129267E1,-6.929176331E0,-3.198863029E0,-4.743371010E0
1.129131234E1,-5.476251602E0,-1.814124107E0,-6.405267715E0
1.130133174E1,-5.057660580E0,-1.112763405E0,-3.358419895E0
1.131135114E1,-5.483225822E0,-9.986057281E-1,1.073432922E0
1.132137094E1,-5.482536316E0,-1.035884857E0,4.349128723E0
1.133139064E1,-4.875295639E0,-8.430557251E-1,7.080997944E0
1.134140924E1,-4.320838928E0,-4.704856873E-1,7.671673775E0
1.135142764E1,-3.040163040E0,3.170356750E-1,5.005627632E0
1.136144697E1,-2.078529596E0,1.076111317E0,1.507871389E0
1.137146607E1,-2.474182844E0,1.292279243E0,1.408682585E0
1.138148464E1,-3.138554335E0,1.231898308E0,1.598104596E0
1.139150290E1,-4.367486000E0,1.447233200E0,1.830412149E0
1.140152137E1,-5.906448841E0,1.594198227E0,1.986961246E0
1.141153977E1,-7.263766289E0,1.650146961E0,2.205412149E0
1.142155707E1,-8.441060066E0,1.875246048E0,2.383102179E0
1.143157403E1,-9.083141327E0,2.169615746E0,2.626675367E0
1.144159197E1,-9.795435905E0,2.423132420E0,3.320933580E0
1.145160980E1,-1.054636383E1,2.748669624E0,3.677210331E0
1.146162770E1,-1.090662956E1,3.218348503E0,3.865571499E0
1.147164557E1,-1.122409058E1,3.836539268E0,4.452727318E0
1.148166370E1,-1.129086685E1,4.407694817E0,5.226754189E0
1.149168153E1,-1.072840881E1,4.965456009E0,5.321407318E0
1.150169830E1,-9.701395035E0,4.962762833E0,4.865450382E0
1.151171486E1,-8.004140854E0,4.655852795E0,4.307494164E0
1.152173236E1,-6.432113647E0,4.266499043E0,3.428915977E0
1.153174980E1,-4.953375340E0,3.611064434E0,1.536226392E0
1.154176683E1,-3.316186905E0,2.275603294E0,-2.678305626E0
1.155178376E1,-4.748787880E-1,4.000573158E-1,-8.958958626E0
1.156180076E1,4.830928326E0,-2.783774376E0,-1.194136429E1
1.157181743E1,1.136441803E1,-6.894160271E0,-1.748207855E1
1.158183260E1,1.299878788E1,-1.210498142E1,-1.013114262E1
1.159184750E1,1.189541149E1,-1.333710194E1,-5.684983730E0
1.160186320E1,1.093084049E1,-9.533083916E0,-3.640391111E0
1.161187876E1,7.287832260E0,-4.288509369E0,-2.603627205E0
1.162189386E1,4.255084038E0,-3.885030746E-1,-2.332187414E0
1.163190893E1,2.060284615E0,2.581496239E0,-2.587900639E0
1.164192439E1,8.061716557E-1,3.833488464E0,-2.425842524E0
1.165193993E1,-9.549288750E-1,1.589174271E-1,-2.686545610E0
1.166195436E1,-2.620019197E0,-4.520388603E0,-5.359773636E-1
1.167196889E1,-2.946411371E0,-9.501543999E0,-7.342588902E-1
1.168198466E1,-3.640764236E0,-1.786307144E1,-6.478864670E0
1.169200046E1,-4.564981937E0,-2.141869354E1,-1.965439224E1
1.170201602E1,-5.192030430E0,-8.294252396E0,-3.044477701E0
1.171203159E1,-6.669960499E0,-5.364780426E-1,9.088025093E0
1.172204749E1,-8.478485107E0,3.558970451E0,1.700918579E1
1.173206359E1,-8.907464027E0,7.394409180E0,1.723378563E1
1.174207879E1,-9.421872139E0,7.417853355E0,1.092526531E1
1.175209412E1,-9.733087540E0,4.482867718E0,9.416048050E0
1.176211026E1,-8.475375175E0,2.055226803E0,8.957353592E0
1.177212642E1,-7.407915115E0,1.496036053E0,8.557752609E0
1.178214232E1,-6.977043629E0,7.416887283E-1,7.550439358E0
1.179215849E1,-5.799357891E0,-8.549880981E-1,6.719282627E0
1.180217505E1,-5.043306351E0,-2.185664177E0,6.268867493E0
1.181219179E1,-4.345606804E0,-3.167411804E0,5.467135429E0
1.182220769E1,-3.465082884E0,-3.517130852E0,5.070968628E0
1.183222372E1,-2.478923321E0,-4.167516708E0,4.453976154E0
1.184224079E1,-1.647740960E0,-4.823627472E0,4.403266907E0
1.185225785E1,-7.833616734E-1,-6.066482544E0,7.130756855E0
1.186227465E1,8.447558880E-1,-5.757776260E0,5.726308823E0
1.187229155E1,2.158658981E0,-3.741148949E0,2.094201088E0
1.188230915E1,2.485941172E0,-1.642798424E0,3.326350451E-1
1.189232702E1,1.920140266E0,2.009353638E-1,4.220704436E-1
1.190234445E1,1.057174206E0,1.714345932E0,4.199825227E-1
1.191236212E1,3.401796818E-1,2.209263802E0,6.197333336E-2
1.192238118E1,-2.877680063E-1,2.066403389E0,-1.065168142E0
1.193240038E1,-8.183938265E-1,1.729864597E0,-2.266331673E0
1.194241925E1,-1.335599184E0,1.250626564E0,-3.330415487E0
1.195243815E1,-1.797328234E0,8.234291077E-1,-3.506783724E0
1.196245758E1,-1.926510811E0,6.600904465E-1,-2.651219845E0
1.197247712E1,-2.107886553E0,4.611244202E-1,-1.681385159E0
1.198249568E1,-2.294890881E0,4.279632568E-1,-1.137796164E0
1.199251438E1,-2.489246845E0,3.858995438E-1,-9.402437806E-1
1.200253421E1,-2.654221296E0,4.522323608E-1,-7.769473791E-1
1.201255418E1,-2.931228638E0,1.824207306E-1,-5.629636049E-1
1.202257395E1,-2.685658455E0,2.821455002E-1,-6.457464695E-1
1.203259368E1,-2.463813782E0,4.782857895E-1,-5.897676945E-1
1.204261381E1,-2.204551697E0,7.364387512E-1,-2.098401189E-1
1.205263398E1,-1.961129427E0,9.574146271E-1,8.355832100E-2
1.206265308E1,-1.852849960E0,9.820737839E-1,3.481794596E-1
1.207267224E1,-1.759418964E0,9.823923111E-1,2.646728754E-1
1.208269254E1,-1.205779552E0,7.842941284E-1,6.354248524E-1
1.209271284E1,-6.577905416E-1,2.397813797E-1,5.730662346E-1
1.210273288E1,-1.385533214E-1,-3.346853256E-1,2.374500036E-1
1.211275288E1,2.954906821E-1,-5.823507309E-1,-2.435612679E-2
1.212277314E1,6.459338069E-1,-5.146570206E-1,-1.624251604E-1
1.213279341E1,1.278509498E0,-4.405851364E-1,-3.120087385E-1
1.214281274E1,2.117237329E0,-6.128416061E-1,-5.069463253E-1
1.215283214E1,3.351959229E0,-1.328323364E0,-1.083153486E0
1.216285261E1,4.641301632E0,-2.241053581E0,-2.154258728E0
1.217287311E1,6.196227074E0,-2.870323181E0,-3.628036499E0
1.218289324E1,7.442351818E0,-2.846767426E0,-4.579542160E0
1.219291314E1,8.650502205E0,-2.287207603E0,-5.427783966E0
1.220293287E1,1.000788689E1,-1.205477715E0,-8.796859741E0
1.221295261E1,9.352893829E0,8.908939362E-2,-8.499689102E0
1.222297117E1,8.482873917E0,9.085245132E-1,-6.255989075E0
1.223298977E1,7.580116272E0,7.948169708E-1,-5.344964504E0
1.224300947E1,6.446724892E0,-3.334703445E-1,-6.438746452E0
1.225302917E1,6.253540993E0,-1.346817970E0,-7.611428261E0
1.226304841E1,8.226701736E0,-2.746298790E0,-8.182608604E0
1.227306754E1,1.013743019E1,-4.052225113E0,-7.326866627E0
1.228308717E1,1.077488613E1,-4.928816795E0,-4.926036835E0
1.229310667E1,9.103977203E0,-5.252471924E0,-3.344892025E0
1.230312497E1,5.961550713E0,-4.896366119E0,-3.481659651E0
1.231314317E1,3.906042337E0,-4.363905907E0,-4.676455975E0
1.232316224E1,3.687482595E0,-4.010519028E0,-4.405749321E0
1.233318144E1,3.949230433E0,-4.721917152E0,-2.675064564E0
1.234320030E1,3.479247570E0,-6.236578941E0,-9.913312793E-1
1.235321907E1,1.923146009E0,-8.547883034E0,1.067382812E0
1.236323807E1,5.723577738E-2,-1.137339878E1,3.311616421E0
1.237325694E1,-2.134566784E0,-1.333585072E1,6.255954266E0
1.238327460E1,-4.050099850E0,-1.400639629E1,9.186969757E0
1.239329230E1,-6.487685204E0,-1.361134243E1,1.280356979E1
1.240331100E1,-8.839051247E0,-1.160151958E1,1.399299908E1
1.241332984E1,-9.613359451E0,-9.232391357E0,1.190133667E1
1.242334837E1,-9.679122925E0,-6.777128220E0,7.344115257E0
1.243336680E1,-9.743556976E0,-5.070194244E0,2.535516739E0
1.244338547E1,-8.188970566E0,-3.051189423E0,-9.201714516E0
1.245340413E1,-6.887274742E0,-1.760992050E0,-1.499870777E1
1.246342167E1,-6.642732620E0,-1.377106667E0,-1.009146500E1
1.247343910E1,-7.850234985E0,-1.748981476E0,-2.846861839E0
1.248345753E1,-7.763317108E0,-1.562485695E0,9.832043648E-1
1.249347610E1,-7.309407234E0,-1.054896355E0,3.728848457E0
1.250349420E1,-6.757307529E0,-6.270370483E-1,5.296881199E0
1.251351220E1,-5.917302132E0,3.381433487E-1,5.886795998E0
1.252353043E1,-5.335091591E0,1.315536976E0,5.306015968E0
1.253354846E1,-4.516091347E0,2.132070541E0,4.396865368E0
1.254356526E1,-4.139035702E0,2.874093056E0,3.642717600E0
1.255358200E1,-4.042916775E0,3.196345329E0,3.274238586E0
1.256359983E1,-3.748606682E0,3.538249969E0,3.269864082E0
1.257361773E1,-3.617200136E0,3.918029308E0,3.668428421E0
1.258363496E1,-3.837700844E0,3.853211403E0,4.087629795E0
1.259365233E1,-3.929300308E0,3.768405914E0,4.100159168E0
1.260367023E1,-4.155187607E0,3.469422817E0,3.933359623E0
1.261368816E1,-4.670598984E0,3.038800716E0,3.870102644E0
1.262370516E1,-5.545048714E0,2.801739693E0,3.609257936E0
1.263372200E1,-6.927897930E0,2.964517117E0,2.913244247E0
1.264373976E1,-8.192770958E0,3.449935913E0,2.783511400E0
1.265375759E1,-9.248775482E0,4.145977020E0,3.400933266E0
1.266377529E1,-9.694077492E0,4.800404549E0,3.812037230E0
1.267379306E1,-9.796546936E0,5.390314102E0,3.742803574E0
1.268381113E1,-9.273860931E0,5.469329834E0,3.530092001E0
1.269382916E1,-8.151042938E0,5.120966434E0,3.108301401E0
1.270384623E1,-6.885772705E0,4.573032379E0,2.762498379E0
1.271386319E1,-5.498618126E0,3.692203999E0,1.809264183E0
1.272388112E1,-3.594332695E0,2.192464352E0,-5.538764000E-1
1.273389912E1,-9.153869152E-1,2.820806503E-1,-2.867476225E0
1.274391689E1,4.218051434E0,-3.058432579E0,-9.948381424E0
1.275393469E1,1.259037209E1,-7.926972389E0,-2.166609192E1
1.276395306E1,1.390255547E1,-1.298489094E1,-1.187670898E1
1.277397162E1,1.348775578E1,-1.311139679E1,-7.956719398E0
1.278398926E1,1.488189888E1,-1.063201904E1,-9.046087265E0
1.279400702E1,1.371154022E1,-6.589875221E0,-9.789863586E0
1.280402609E1,7.559628487E0,-4.007356644E0,-7.762903690E0
1.281404535E1,3.114898920E0,-1.231665611E0,-3.433911324E0
1.282406419E1,3.128326178E0,-1.241524696E0,-3.344376087E0
1.283408309E1,-3.867655993E0,-7.111913681E0,2.861731529E0
1.284410242E1,-4.679864883E0,-1.050790024E1,2.528405190E0
1.285412178E1,-5.427992821E0,-1.444902611E1,2.035862207E0
1.286414015E1,-7.788977623E0,-1.769534302E1,-1.810344338E0
1.287415845E1,-1.006378555E1,-1.311487293E1,-3.135425758E1
1.288417802E1,-7.731675148E0,-5.248782158E0,-6.208254814E0
1.289420635E1,-9.051305771E0,-7.006835938E-2,8.848122597E0
1.290423425E1,-9.611351013E0,3.156922340E0,1.521599770E1
1.291426205E1,-9.109671593E0,7.522910118E0,1.808281136E1
1.292429015E1,-9.111685753E0,1.225947666E1,1.613739395E1
1.293431832E1,-9.186634064E0,1.085437584E1,1.227372837E1
1.294434555E1,-8.865049362E0,5.809250832E0,9.823035240E0
1.295437292E1,-8.772026062E0,3.090427876E0,9.027620316E0
1.296440122E1,-8.511499405E0,-2.617206573E-1,7.648760796E0
1.297442952E1,-7.740120411E0,-3.713517189E0,6.600533962E0
1.298445752E1,-6.638104916E0,-6.021249771E0,7.066728115E0
1.299448538E1,-5.635541916E0,-6.058968544E0,6.183861256E0
1.300451355E1,-5.514152527E0,-5.990471840E0,6.061846256E0
1.301454161E1,-3.640356779E0,-4.009851456E0,4.039612770E0
1.302456878E1,-3.233462811E0,-3.622773170E0,3.215543270E0
1.303459608E1,-2.560008764E0,-3.361742973E0,3.047009945E0
1.304462441E1,-1.620650887E0,-3.167935371E0,2.610622883E0
1.305465285E1,-1.039461851E0,-2.198707581E0,2.030412197E0
1.306468104E1,-7.329070568E-1,-1.117206573E0,2.416384459E0
1.307470931E1,-1.978991032E-1,3.229656219E-1,5.065752029E0
1.308473781E1,9.318366051E-1,1.675405502E-1,2.461737394E0
1.309476618E1,1.772083759E0,-8.160877228E-2,1.003410667E-1
1.310479351E1,2.159334421E0,6.991195679E-2,-1.841084957E0
1.311482064E1,1.677903175E0,4.675874710E-1,-3.001460791E0
1.312484894E1,8.067171574E-1,9.050168991E-1,-2.849712849E0
1.313487748E1,3.518519402E-1,8.821563721E-1,-1.859317064E0
1.314490581E1,2.127782106E-1,8.513994217E-1,-1.001537085E0
1.315493418E1,5.528148413E-1,1.119009972E0,-1.471256256E0
1.316496288E1,8.310011625E-1,1.276308060E0,-2.789993048E0
1.317499151E1,6.200797558E-1,1.215093613E0,-3.523644447E0
1.318501881E1,1.459282637E-1,1.128836632E0,-3.700772285E0
1.319503704E1,-2.963365316E-1,9.186048508E-1,-3.601652384E0
1.320505597E1,-4.489002824E-1,7.116012573E-1,-3.281036854E0
1.321507471E1,-6.420269012E-1,4.902296066E-1,-2.737210751E0
1.322509297E1,-6.628422141E-1,4.607362747E-1,-2.302426100E0
1.323511104E1,-4.590784907E-1,4.182405472E-1,-2.083583832E0
1.324512921E1,-3.891425729E-1,4.227991104E-1,-2.098326206E0
1.325514714E1,-1.219935417E-1,6.332969666E-1,-1.366462708E0
1.326516394E1,2.816718817E-2,4.008226395E-1,-1.234524846E0
1.327518070E1,4.114589691E-1,-6.651973724E-2,-1.245998025E0
1.328519867E1,9.037673473E-1,-4.323616028E-1,-1.262608409E0
1.329521657E1,9.882377982E-1,-4.257888794E-1,-1.261742711E0
1.330523387E1,1.350618839E0,-5.404615402E-1,-1.032885790E0
1.331525100E1,1.478916049E0,-5.147476196E-1,-1.227362156E-1
1.332526807E1,1.400183320E0,-2.259149551E-1,3.900797367E-1
1.333528490E1,1.572081327E0,8.967208862E-2,8.225495815E-1
1.334530050E1,2.037091970E0,-1.347675323E-1,9.653828144E-1
1.335531590E1,2.560944796E0,-9.033403397E-1,6.310563087E-1
1.336533190E1,2.721024036E0,-1.666489601E0,3.282809258E-1
1.337534754E1,2.773220062E0,-2.303971291E0,-3.260505199E-1
1.338536270E1,3.142055511E0,-2.487922668E0,-1.198200345E0
1.339537767E1,3.834722042E0,-2.251334190E0,-2.184430361E0
1.340539270E1,4.499044895E0,-1.857930183E0,-2.699357510E0
1.341540757E1,5.089790821E0,-1.146075249E0,-2.874278307E0
1.342542110E1,5.741414547E0,-8.513708115E-1,-2.912338734E0
1.343543427E1,6.379128933E0,-1.120875359E0,-3.333664894E0
1.344544827E1,7.134788036E0,-1.872923851E0,-4.455080986E0
1.345546193E1,7.270416260E0,-1.892439842E0,-4.473357677E0
1.346547500E1,1.073806477E1,-5.515136719E0,-9.515789986E0
1.347548806E1,1.110426712E1,-4.757612228E0,-9.924827576E0
1.348550143E1,1.061329937E1,-3.556907654E0,-9.435558319E0
1.349551490E1,9.813905716E0,-2.573586464E0,-8.501462936E0
1.350552750E1,8.092656136E0,-2.093219757E0,-6.662870407E0
1.351554013E1,6.292974949E0,-2.364754677E0,-4.398237705E0
1.352555383E1,5.745782852E0,-3.512714386E0,-3.605688572E0
1.353556759E1,5.702100277E0,-5.430319786E0,-3.146662712E0
1.354558123E1,5.373057365E0,-5.378860474E0,-2.905451298E0
1.355559496E1,2.186178207E0,-8.436570168E0,-2.790224791E0
1.356560893E1,3.545601368E-1,-1.015252113E1,-2.083357334E0
1.357562283E1,-2.179679632E0,-1.208974457E1,1.029333472E0
1.358563543E1,-4.176295757E0,-1.285760307E1,3.070466042E0
1.359564809E1,-6.035210609E0,-1.315387630E1,6.141916275E0
1.360566193E1,-8.042499542E0,-1.182310486E1,8.862680435E0
1.361567582E1,-9.988894463E0,-1.052054405E1,1.159927654E1
1.362568966E1,-1.174651909E1,-8.163692474E0,1.260751152E1
1.363570359E1,-1.169773483E1,-5.023133278E0,9.368728638E0
1.364571806E1,-1.190382385E1,-5.096100807E0,9.359443665E0
1.365573269E1,-9.714280128E0,6.763458252E-2,-1.782706976E-1
1.366574656E1,-7.882283211E0,5.008153915E-1,-4.593366623E0
1.367576069E1,-6.335968971E0,1.067814827E0,-4.429326534E0
1.368577599E1,-5.861097813E0,1.165615082E0,-2.309874535E0
1.369579122E1,-5.945630550E0,1.114493370E0,2.908326983E-1
1.370580606E1,-5.580974102E0,1.026328564E0,2.965241432E0
1.371582076E1,-4.767495632E0,1.155874729E0,5.311390400E0
1.372583579E1,-3.721295118E0,1.512053967E0,6.146515846E0
1.373585082E1,-2.557465553E0,1.880745411E0,6.206555843E0
1.374586482E1,-2.560576916E0,1.849204540E0,6.372262001E0
1.375587885E1,-2.693080902E-2,2.247794151E0,3.936882973E0
1.376589389E1,8.754534721E-1,2.085010529E0,2.983351707E0
1.377590879E1,8.896646500E-1,1.796266079E0,2.943244934E0
1.378592342E1,-1.284161568E0,1.302672386E0,2.571934938E0
1.379593799E1,-3.877365112E0,8.718724251E-1,2.331991196E0
1.380595285E1,-6.021243095E0,7.366161346E-1,2.486302376E0
1.381596785E1,-7.391224384E0,1.024246216E0,2.549965143E0
1.382598179E1,-8.234474182E0,1.945605278E0,2.772861958E0
1.383599562E1,-8.757571220E0,3.103773594E0,3.195745945E0
1.384601032E1,-9.462110519E0,3.880910397E0,4.035021782E0
1.385602485E1,-1.027241707E1,4.413596153E0,4.893055439E0
1.386603905E1,-1.078297520E1,4.747501850E0,5.408688545E0
1.387605308E1,-1.064871979E1,4.901922226E0,5.259651184E0
1.388606732E1,-9.830415726E0,4.633054733E0,4.396471977E0
1.389608198E1,-8.704893112E0,4.115906239E0,3.663099289E0
1.390609572E1,-7.319352627E0,3.560286045E0,2.489576340E0
1.391610935E1,-6.003837585E0,3.030036926E0,1.156029463E0
1.392612358E1,-4.373558998E0,1.833328247E0,-1.240509868E0
1.393613762E1,-2.261779547E0,2.415237427E-1,-4.803802013E0
1.394615095E1,1.852415085E0,-2.573093414E0,-9.771461487E0
1.395616421E1,7.273546219E0,-6.154813766E0,-1.654509735E1
1.396617758E1,1.376498604E1,-9.762407303E0,-1.596823597E1
1.397621188E1,1.622023964E1,-1.162686157E1,-7.922311783E0
1.398624505E1,1.631118584E1,-1.049447918E1,-6.113106728E0
1.399627845E1,1.351812458E1,-8.271127701E0,-7.485301971E0
1.400631275E1,8.316017151E0,-4.488734245E0,-6.580926895E0
1.401634728E1,3.898173332E0,-1.658966064E0,-5.956961632E0
1.402638161E1,8.420591354E-1,-3.832464218E-1,-4.353083134E0
1.403641611E1,-2.377107143E0,-3.682456970E0,-8.363606930E-1
1.404645105E1,-3.687729120E0,-6.588121414E0,1.207149863E0
1.405648624E1,-3.519917250E0,-9.586508751E0,1.605689287E0
1.406652071E1,-3.502119541E0,-9.592209816E0,1.687200189E0
1.407655541E1,-3.764953375E0,-1.695566177E1,-2.880339146E0
1.408659108E1,-2.519196272E0,-1.016322803E1,-5.881756783E0
1.409662681E1,-5.092092991E0,-1.570654869E0,1.070183635E0
1.410666234E1,-8.003620148E0,2.635481358E0,9.061646461E0
1.411669794E1,-9.758782387E0,5.288949966E0,1.106733322E1
1.412673381E1,-1.105512524E1,8.804122925E0,1.002147770E1
1.413676964E1,-1.150403500E1,9.773346901E0,9.083548546E0
1.414680438E1,-1.058187866E1,5.558175087E0,9.678890228E0
1.415683914E1,-1.025569248E1,3.670050621E0,8.786160469E0
1.416687461E1,-1.119284725E1,1.344998837E0,8.285787582E0
1.417691014E1,-1.088905621E1,-1.248849869E0,7.415085316E0
1.418694544E1,-9.644952774E0,-3.433569908E0,6.410750389E0
1.419698021E1,-8.707453728E0,-3.981270790E0,5.188590527E0
1.420701517E1,-7.293456078E0,-3.462641716E0,3.653566837E0
1.421705017E1,-6.024792671E0,-2.770623207E0,3.379599333E0
1.422708450E1,-4.905328274E0,-2.457441330E0,2.623753071E0
1.423711894E1,-4.051874161E0,-2.455071449E0,2.091660023E0
1.424715427E1,-3.272687674E0,-2.501904488E0,2.436693907E0
1.425718934E1,-2.559124470E0,-2.976582527E0,2.653398275E0
1.426722410E1,-2.288385868E0,-3.204023361E0,3.578334332E0
1.427723770E1,-1.099719048E0,-2.299411774E0,3.956571102E0
1.428725164E1,3.478982449E-1,-1.531067848E0,2.229302168E0
1.429726564E1,1.340180635E0,-1.105116844E0,5.709548593E-1
1.430727887E1,1.568357229E0,-1.043327332E0,2.601748109E-1
1.431729214E1,1.609385490E0,3.303337097E-1,-1.432868958E0
1.432730607E1,1.286871910E0,4.209270477E-1,-1.403343916E0
1.433731993E1,1.501598358E0,2.472276688E-1,-1.161519527E0
1.434733353E1,1.928791642E0,2.765359879E-1,-1.295713186E0
1.435734707E1,2.381329298E0,6.664257050E-1,-1.842005253E0
1.436736077E1,2.591699123E0,1.404036522E0,-2.635735989E0
1.437737437E1,2.463721275E0,1.834769249E0,-3.227829933E0
1.438738693E1,1.957599282E0,1.819032669E0,-3.641161919E0
1.439739940E1,1.053538561E0,1.581967831E0,-3.877178192E0
1.440741250E1,1.133795500E0,1.579710484E0,-3.940229177E0
1.441742543E1,-2.452350259E-1,1.122133255E0,-2.901573181E0
1.442743810E1,-4.913359284E-1,7.813110352E-1,-2.334061146E0
1.443745100E1,-6.407651901E-1,5.966615677E-1,-1.895733595E0
1.444746436E1,-7.276841998E-1,4.955596924E-1,-1.614545822E0
1.445747780E1,-9.098235369E-1,2.529964447E-1,-1.211449146E0
1.446749066E1,-1.049029231E0,5.618095398E-2,-7.737463713E-1
1.447750366E1,-1.147742629E0,-1.526336670E-1,-5.932642221E-1
1.448751763E1,-1.125618815E0,-2.805271149E-1,-6.243321896E-1
1.449753160E1,-1.013500452E0,-2.819805145E-1,-7.394874096E-1
1.450754526E1,-7.018667459E-1,-3.575763702E-1,-7.776808739E-1
1.451755913E1,-3.529422283E-1,-5.113210678E-1,-6.242834330E-1
1.452757339E1,6.485009193E-2,-4.914684296E-1,-2.410764694E-1
1.453758773E1,4.773162007E-1,-5.572547913E-1,1.584267616E-1
1.454760133E1,9.642448425E-1,-8.310480118E-1,6.304073334E-1
1.455761506E1,1.652816296E0,-1.489429474E0,1.150095940E0
1.456762962E1,2.424293756E0,-2.154880524E0,1.410289049E0
1.457764429E1,3.245761633E0,-2.301012039E0,8.920984268E-1
1.458765849E1,3.829201460E0,-2.140709877E0,-4.002215862E-1
1.459767256E1,3.950839996E0,-2.182766914E0,-5.537016392E-1
1.460768696E1,4.547761917E0,-1.569674492E0,-2.344630241E0
1.461770142E1,5.051907063E0,-1.090641975E0,-2.608030796E0
1.462771516E1,5.775302410E0,-7.992658615E-1,-3.057380438E0
1.463772876E1,6.485496521E0,-4.435644150E-1,-4.451187134E0
1.464774286E1,8.058104515E0,-2.696037292E-3,-1.117285538E1
1.465775709E1,9.285287857E0,4.219055176E-3,-1.306315994E1
1.466777089E1,9.925442696E0,-2.143198967E0,-1.132069111E1
1.467778452E1,1.003451157E1,-4.656433105E0,-9.062951088E0
1.468779859E1,8.942402840E0,-5.499314308E0,-7.774013519E0
1.469781279E1,7.448212624E0,-4.314963341E0,-6.515138149E0
1.470782622E1,6.180596352E0,-2.819571495E0,-4.744605064E0
1.471783975E1,5.645292282E0,-2.101147652E0,-3.170367956E0
1.472785409E1,6.397845745E0,-3.434535027E0,-2.603096724E0
1.473786852E1,6.033819675E0,-5.458198547E0,-2.332359552E0
1.474788262E1,5.674480915E0,-5.427378654E0,-2.068289757E0
1.475789679E1,2.926047802E0,-8.810690880E0,-1.999015927E0
1.476791122E1,1.177948475E0,-1.048883438E1,-1.005134821E0
1.477792565E1,-1.169898987E0,-1.239429855E1,1.710353971E0
1.478793909E1,-3.683480024E0,-1.443787384E1,4.719631672E0
1.479795268E1,-7.293309689E0,-1.625792694E1,1.013262367E1
1.480796705E1,-1.073864365E1,-1.515237331E1,1.345475101E1
1.481798118E1,-1.213297653E1,-1.248106384E1,1.576615238E1
1.482799482E1,-1.241514492E1,-8.092659950E0,1.251072025E1
1.483800832E1,-1.177705860E1,-4.484270096E0,6.738536358E0
1.484802202E1,-1.007990932E1,-1.265972137E0,-1.724511743E0
1.485803572E1,-7.928203106E0,1.124680996E0,-8.779345512E0
1.486804885E1,-6.221140385E0,2.017317772E0,-8.880060196E0
1.487806205E1,-6.337543011E0,1.969323158E0,-9.018506050E0
1.488807618E1,-6.685011864E0,1.423555374E0,-6.948609352E-1
1.489809168E1,-6.177237988E0,1.338528633E0,2.037766218E0
1.490810698E1,-5.186783314E0,1.569340706E0,3.839895248E0
1.491812222E1,-3.497561216E0,2.199954510E0,4.516938210E0
1.492813778E1,-3.505758524E0,2.171303272E0,4.705805779E0
1.493815342E1,-1.089697123E0,2.759913921E0,4.198770523E0
1.494816825E1,-2.904701233E-1,2.424750805E0,3.662087440E0
1.495818288E1,-2.158637047E-1,1.706439495E0,3.692353725E0
1.496819815E1,-1.019662857E0,9.684042931E-1,3.120459557E0
1.497821355E1,-3.206830740E0,5.970277786E-1,2.251618862E0
1.498822861E1,-5.329005241E0,3.014931679E-1,1.438568592E0
1.499824365E1,-6.595898151E0,2.659683228E-1,1.116837740E0
1.500825898E1,-7.741958618E0,4.274182320E-1,1.014332533E0
1.501827421E1,-8.629748344E0,1.096412659E0,1.399751067E0
1.502828865E1,-9.500232697E0,1.656657219E0,2.199008942E0
1.503830284E1,-1.020257378E1,2.399487019E0,3.051918507E0
1.504831778E1,-1.077477837E1,2.959285259E0,3.831352234E0
1.505833274E1,-1.108742905E1,3.524804115E0,4.352061272E0
1.506834748E1,-1.120927429E1,3.861904621E0,4.572854996E0
1.507836218E1,-1.059810638E1,3.951881409E0,4.168011665E0
1.508837728E1,-9.661046982E0,3.703912735E0,3.546731472E0
1.509839218E1,-8.459841728E0,3.225401878E0,2.726847172E0
1.510840618E1,-7.096193314E0,2.699982166E0,1.673066497E0
1.511842028E1,-5.603354454E0,2.113179207E0,1.222200394E-1
1.512843514E1,-3.541681290E0,1.136161804E0,-2.324769974E0
1.513845018E1,-1.234005690E0,-1.797122955E-1,-5.289602757E0
1.514846508E1,2.345881939E0,-2.609262466E0,-9.547880173E0
1.515848004E1,6.417788506E0,-5.727719307E0,-1.121459198E1
1.516849544E1,9.916065216E0,-9.264128685E0,-8.946035385E0
1.517851084E1,1.255459976E1,-1.083000374E1,-6.397929192E0
1.518852548E1,1.531944847E1,-9.867007256E0,-5.166649342E0
1.519853868E1,1.568811321E1,-7.673072815E0,-7.393035889E0
1.520855234E1,1.173226929E1,-4.343091965E0,-8.626305580E0
1.521856587E1,5.501793861E0,-1.571727753E0,-5.415748596E0
1.522857897E1,2.309011698E0,3.650894165E-1,-2.832761288E0
1.523859201E1,-4.574465752E-1,1.745010853E0,-9.593864679E-1
1.524860534E1,-2.627062082E0,9.606552124E-2,3.718245625E-1
1.525861861E1,-3.664165735E0,-2.335580826E0,1.149907112E0
1.526863124E1,-3.083294868E0,-4.036734581E0,2.374861002E0
1.527864374E1,-2.480286837E0,-6.358968735E0,2.939220428E0
1.528865697E1,-2.329644680E0,-9.136189461E0,2.971377850E0
1.529867014E1,-2.625125408E0,-1.133012199E1,3.597198248E0
1.530868300E1,-3.860854864E0,-1.215854645E1,2.550310850E0
1.531869580E1,-5.749118805E0,-8.811156273E0,-9.363023043E-1
1.532870880E1,-7.414162636E0,-4.921854019E0,-1.315636635E0
1.533872184E1,-7.713871956E0,-7.169218063E-1,-9.873197675E-1
1.534873410E1,-7.996413231E0,2.191253662E0,2.666650414E-1
1.535874610E1,-8.084973335E0,4.643154621E0,2.471600294E0
1.536875857E1,-8.890727043E0,6.138076305E0,4.718074799E0
1.537877094E1,-9.354393005E0,7.018575668E0,6.572288990E0
1.538878284E1,-9.044060707E0,7.095228672E0,7.922092438E0
1.539879470E1,-8.311018944E0,6.454533577E0,6.329236031E0
1.540880697E1,-8.216077805E0,5.003634453E0,3.851733446E0
1.541881930E1,-8.563299179E0,2.643352985E0,1.378264427E0
1.542883097E1,-7.860785484E0,7.738685608E-2,-7.213660479E-1
1.543884250E1,-7.120117188E0,-2.098549843E0,-2.057920933E0
1.544885463E1,-6.067160606E0,-3.064908028E0,-1.272794962E0
1.545886670E1,-5.178398609E0,-3.049443245E0,-2.331704497E-1
1.546887856E1,-4.240416527E0,-2.772719383E0,1.016469955E0
1.547889036E1,-3.088813782E0,-2.083749771E0,1.487553000E0
1.548890236E1,-1.741258621E0,-1.336486816E0,1.573818207E0
1.549891426E1,-8.374493122E-1,-8.129272461E-1,1.326850772E0
1.550892550E1,-2.921655178E-1,-7.667245865E-1,9.197972417E-1
1.551893683E1,-3.615497351E-1,-9.688043594E-1,7.715979218E-1
1.552894886E1,-3.706146479E-1,-1.140244484E0,8.397865295E-1
1.553896093E1,-3.449678421E-3,-1.416907310E0,2.482212067E0
1.554897270E1,8.630037308E-1,-1.514849663E0,3.917013645E0
1.555898450E1,2.526506901E0,-6.978235245E-1,2.407311916E0
1.556899653E1,3.471988678E0,-2.557744980E-1,5.585692525E-1
1.557900853E1,3.786731482E0,4.068346024E-1,-1.050874114E0
1.558901973E1,3.669453144E0,9.943847656E-1,-2.123649836E0
1.559903083E1,3.294980526E0,1.316752434E0,-2.485259533E0
1.560904256E1,3.210718632E0,1.612533092E0,-1.983946681E0
1.561905433E1,3.472305298E0,1.736063480E0,-1.361779094E0
1.562906593E1,3.910480976E0,1.815769196E0,-1.656314373E0
1.563907756E1,3.938881397E0,2.042068481E0,-2.758965254E0
1.564908953E1,3.222447395E0,1.952740192E0,-3.592669964E0
1.565910163E1,1.987679005E0,1.396414757E0,-3.687206268E0
1.566911286E1,9.646485448E-1,8.920269012E-1,-3.227948189E0
1.567912402E1,2.512598038E-2,3.296480179E-1,-2.967168808E0
1.568913589E1,-4.881736934E-1,3.393363953E-2,-2.949093819E0
1.569914782E1,-7.262293100E-1,-1.897983551E-1,-3.068998337E0
1.570915949E1,-6.883741617E-1,-2.486248016E-1,-3.108197212E0
1.571917116E1,-6.908534765E-1,-8.074760437E-2,-2.805358410E0
1.572918322E1,-1.019795060E0,1.633071899E-2,-2.263781071E0
1.573919529E1,-1.215015650E0,1.685857773E-1,-1.623096108E0
1.574920675E1,-1.184516907E0,5.722322464E-1,-8.336886168E-1
1.575921825E1,-1.062879443E0,9.295520782E-1,-1.132471561E-1
1.576923009E1,-8.678627014E-1,9.205160141E-1,5.652310848E-1
1.577924179E1,-5.407105088E-1,4.862384796E-1,8.916819096E-1
1.578925302E1,-1.268237829E-2,-2.853097916E-1,7.512819767E-1
1.579926432E1,4.019350708E-1,-1.070823669E0,4.378964901E-1
1.580927595E1,9.501409531E-1,-1.567488670E0,3.864090443E-1
1.581928749E1,1.454131246E0,-1.795302391E0,5.775630474E-1
1.582929835E1,1.754425526E0,-2.043858528E0,8.442304134E-1
1.583930922E1,2.182107925E0,-2.123034477E0,9.697678089E-1
1.584932085E1,2.633341551E0,-1.890790939E0,7.062988281E-1
1.585933248E1,3.045091867E0,-1.468920708E0,-6.453490257E-2
1.586934385E1,3.588419914E0,-1.375839233E0,-1.403596520E0
1.587935528E1,4.437606335E0,-1.849802017E0,-2.713689804E0
1.588936692E1,5.646751881E0,-2.754480362E0,-3.613342285E0
1.589937982E1,6.935599327E0,-4.122763634E0,-3.959724426E0
1.590939215E1,7.855613232E0,-5.665693283E0,-4.371339798E0
1.591940455E1,8.235571861E0,-5.802532196E0,-7.733948708E0
1.592941755E1,8.065122604E0,-3.662137985E0,-1.163130951E1
1.593943052E1,7.737963200E0,-2.138679504E0,-1.116144276E1
1.594944315E1,6.871621132E0,-1.138021469E0,-8.791683197E0
1.595945575E1,6.101562500E0,-8.256072998E-1,-6.710541248E0
1.596946881E1,5.580549240E0,-8.694839478E-1,-5.302992821E0
1.597948191E1,4.657305717E0,-2.061920166E0,-4.703561783E0
1.598949441E1,3.678612232E0,-3.484874725E0,-4.629356861E0
1.599950695E1,2.633463621E0,-4.542375565E0,-4.684191227E0
1.600952001E1,1.257635355E0,-5.383573532E0,-4.201009750E0
1.601953288E1,-2.641390562E-1,-6.434057236E0,-2.916075706E0
1.602954521E1,-1.251132131E0,-7.526791573E0,-1.625188589E0
1.603955744E1,-2.166345119E0,-8.463890076E0,8.058719635E-1
1.604956974E1,-4.064336777E0,-9.502902985E0,4.477829456E0
1.605958178E1,-5.949362755E0,-1.042029762E1,6.937456131E0
1.606959301E1,-8.744207382E0,-1.035310745E1,1.028188896E1
1.607960424E1,-1.023511028E1,-9.076788902E0,1.258720493E1
1.608961651E1,-9.982916832E0,-6.418506622E0,1.261990547E1
1.609962871E1,-9.192713737E0,-4.451951027E0,1.076269913E1
1.610964061E1,-7.561059952E0,-2.540885925E0,8.122070312E0
1.611965244E1,-6.299018860E0,-1.118641853E0,5.088534355E0
1.612966458E1,-5.187584877E0,-1.547365189E-1,2.733361483E0
1.613967644E1,-3.723292589E0,7.555627823E-1,-5.203938484E-2
1.614968754E1,-2.444179296E0,1.576074123E0,-2.086293697E0
1.615969841E1,-1.589078188E0,1.937035084E0,-2.335621595E0
1.616971031E1,-1.046499014E0,2.118262291E0,-1.260965943E0
1.617972217E1,-6.468560696E-1,2.049418449E0,-2.455354929E-1
1.618973367E1,-1.188802719E-2,1.937071800E0,5.437783599E-1
1.619974384E1,2.274737358E-1,1.369585991E0,9.092934132E-1
1.620975414E1,-5.985913277E-1,4.844999313E-1,7.138327360E-1
1.621976437E1,-7.027320862E-1,4.154891968E-1,7.877607346E-1
1.622977377E1,-5.152662277E0,-6.689577103E-1,7.337710857E-1
1.623978307E1,-6.386592865E0,-5.473499298E-1,9.181117415E-1
1.624979284E1,-7.213395119E0,3.961658478E-2,1.384967923E0
1.625980241E1,-7.681477547E0,6.993722916E-1,2.078610659E0
1.626981160E1,-8.170183182E0,1.317861080E0,2.963816643E0
1.627982090E1,-8.773088455E0,2.054378510E0,3.665408850E0
1.628983040E1,-9.055070877E0,2.672692776E0,3.545363903E0
1.629983980E1,-9.363890648E0,3.100836277E0,3.104073048E0
1.630984847E1,-9.388995171E0,3.175800800E0,2.938530922E0
1.631985714E1,-8.982811928E0,2.839798927E0,2.601032495E0
1.632986660E1,-8.348044395E0,2.463247299E0,2.129807234E0
1.633987614E1,-7.479333878E0,2.078209877E0,1.427484870E0
1.634988554E1,-6.360695839E0,1.723866463E0,7.815858126E-1
1.635989507E1,-5.423471451E0,1.490904808E0,5.034083128E-1
1.636990477E1,-4.422001362E0,1.222185135E0,1.491682529E-1
1.637991450E1,-3.498907089E0,1.010764599E0,-1.127372980E-1
1.638992330E1,-2.129849195E0,8.289699554E-1,-4.958370924E-1
1.639993227E1,-6.047029495E-1,5.377964973E-1,-1.235162616E0
1.640994197E1,1.230176926E0,-1.758069992E-1,-2.409955025E0
1.641995173E1,3.057209492E0,-1.904329300E0,-3.890604019E0
1.642996117E1,5.110297680E0,-3.722562790E0,-6.475972652E0
1.643997073E1,7.954328537E0,-5.264573097E0,-9.235219955E0
1.644998067E1,9.918118477E0,-5.865714073E0,-9.687971115E0
1.645999077E1,1.066187382E1,-7.008976936E0,-8.886940002E0
1.646999983E1,9.603343964E0,-7.810797691E0,-6.916358948E0
1.648000890E1,5.362941742E0,-6.540593147E0,-3.137501240E0
1.649001876E1,2.047477007E0,-4.362656593E0,-1.012026548E0
1.650002870E1,-6.163592339E-1,-2.955400467E0,3.428487182E-1
1.651003850E1,-2.494654417E0,-2.623476982E0,1.513640165E0
1.652004823E1,-2.974745989E0,-3.100038528E0,2.612649918E0
1.653005830E1,-3.175065279E0,-4.510587692E0,2.756418228E0
1.654006833E1,-3.123132467E0,-5.998722076E0,2.876998425E0
1.655007776E1,-3.339658022E0,-7.092737198E0,4.025667191E0
1.656008733E1,-3.868646383E0,-6.670428276E0,4.387716770E0
1.657009773E1,-4.845855713E0,-3.863196373E0,-2.910550833E-1
1.658010813E1,-6.326554775E0,-2.190119743E0,-3.651834011E0
1.659011823E1,-7.107530117E0,-2.027359009E-1,-5.521745205E0
1.660012836E1,-7.379784584E0,1.435621738E0,-5.393270493E0
1.661013886E1,-7.373627663E0,2.077339172E0,-2.452365875E0
1.662014939E1,-7.293599129E0,2.228369713E0,8.493649960E-1
1.663015923E1,-7.620557785E0,2.782886028E0,3.208468914E0
1.664016923E1,-7.964900970E0,3.338637829E0,5.776977062E0
1.665017996E1,-7.687826157E0,3.354604721E0,7.569230556E0
1.666019083E1,-7.577152729E0,2.534205437E0,7.835595608E0
1.667020163E1,-6.730442047E0,1.923669338E0,6.815171242E0
1.668021239E1,-5.855692863E0,1.295783043E0,5.905341625E0
1.669022349E1,-4.800545216E0,-3.063697815E-1,3.365818501E0
1.670023456E1,-3.536489010E0,-1.247444153E0,2.206809044E0
1.671024482E1,-2.673561573E0,-1.561592102E0,2.442742825E0
1.672025512E1,-2.041816950E0,-1.627665520E0,2.591179609E0
1.673026622E1,-1.475405693E0,-1.440714836E0,2.391171932E0
1.674027739E1,-1.049174666E0,-1.286354065E0,2.054762602E0
1.675028812E1,-7.948914766E-1,-1.158647537E0,1.647533655E0
1.676029889E1,-4.340544939E-1,-7.666349411E-1,1.484519958E0
1.677030996E1,-2.949117422E-1,-5.421218872E-1,2.797931433E0
1.678032106E1,1.894446611E-1,-6.841478348E-1,6.337377548E0
1.679033142E1,1.689877272E0,-7.460823059E-1,3.043254375E0
1.680034179E1,2.864103079E0,-9.147233963E-1,3.057528734E-1
1.681035259E1,3.203218222E0,-6.004314423E-1,-2.547821045E0
1.682036332E1,3.118690252E0,-7.112789154E-2,-4.286528111E0
1.683037372E1,3.321237564E0,1.008913040E0,-6.191256523E0
1.684038419E1,3.326284647E0,1.920032978E0,-7.872944832E0
1.685039509E1,2.804197311E0,2.504820347E0,-8.822628021E0
1.686040609E1,1.903705120E0,2.317311764E0,-8.326993942E0
1.687041689E1,7.615458369E-1,1.468544960E0,-7.065757275E0
1.688042772E1,5.145925283E-2,5.927371979E-1,-5.411672115E0
1.689043962E1,-2.588248253E-1,1.472520828E-1,-3.768545628E0
1.690045205E1,-2.485811114E-1,-4.498767853E-2,-2.246151447E0
1.691046449E1,-2.654410601E-1,-1.417436600E-1,-1.360510111E0
1.692047705E1,-2.652864456E-1,-1.634654999E-1,-4.370621443E-1
1.693049002E1,-4.659621119E-1,5.542469025E-2,6.331710815E-1
1.694050285E1,-7.997971773E-1,2.277765274E-1,1.699910879E0
1.695051485E1,-1.010050058E0,4.396200180E-1,2.184969902E0
1.696052665E1,-9.163272381E-1,7.339010239E-1,2.452704430E0
1.697053902E1,-7.377274036E-1,8.564548492E-1,2.778541088E0
1.698057258E1,-5.803124905E-1,7.802076340E-1,2.677618504E0
1.699060582E1,-3.368617296E-1,6.694412231E-1,2.294246674E0
1.700063902E1,-1.709787846E-1,5.194139481E-1,2.078099728E0
1.701067258E1,8.800619841E-2,4.480781555E-1,1.869239926E0
1.702070615E1,3.468848467E-1,1.683797836E-1,1.858331084E0
1.703073901E1,5.756964684E-1,-1.233510971E-1,1.747713327E0
1.704077188E1,8.046212196E-1,-4.756040573E-1,1.368471503E0
1.705080564E1,1.074220657E0,-1.139986992E0,6.548421383E-1
1.706083954E1,1.264756083E0,-1.588971138E0,9.390902519E-2
1.707087324E1,1.338104248E0,-1.608822823E0,-1.144719124E-2
1.708090698E1,1.435880661E0,-2.387525558E0,1.128606796E0
1.709094094E1,1.765105844E0,-2.527923584E0,-5.709750652E-1
1.710097508E1,2.256507397E0,-2.568138123E0,-2.623734236E0
1.711100881E1,2.739496469E0,-2.377589226E0,-4.024347782E0
1.712104281E1,3.401843786E0,-1.924610138E0,-4.374962330E0
1.713107771E1,4.541484356E0,-1.671304703E0,-4.707682610E0
1.714111261E1,6.522565365E0,-1.333710670E0,-7.926071167E0
1.715114718E1,8.423841476E0,-8.309593201E-1,-1.063822269E1
1.716118168E1,1.001540089E1,-9.229612350E-1,-1.006817055E1
1.717121598E1,1.012608624E1,-9.005765915E-1,-9.959033966E0
1.718125021E1,1.126976681E1,-4.182255745E0,-8.129593849E0
1.719128354E1,1.013319397E1,-4.897074699E0,-7.621763706E0
1.720131638E1,8.063214302E0,-4.603171349E0,-6.379730225E0
1.721134991E1,5.922087669E0,-4.239224434E0,-4.815937996E0
1.722138351E1,4.587053776E0,-3.955677032E0,-2.901981831E0
1.723141684E1,4.014229774E0,-3.924983025E0,-1.986778498E0
1.724145024E1,3.665875912E0,-4.115942001E0,-2.323564529E0
1.725148417E1,3.073932886E0,-4.631400108E0,-2.892751694E0
1.726151827E1,1.977401018E0,-5.068763733E0,-2.208828449E0
1.727155174E1,7.197315693E-1,-6.064612389E0,-2.971418202E-1
1.728156404E1,-1.114522696E0,-7.604383469E0,2.992847204E0
1.729157737E1,-2.722330332E0,-8.796930313E0,5.800735474E0
1.730159071E1,-4.807140350E0,-1.030983353E1,1.019329071E1
1.731160377E1,-7.628278732E0,-1.037675476E1,1.294652271E1
1.732161677E1,-7.849831581E0,-1.047939777E1,1.330274487E1
1.733163004E1,-8.089904785E0,-6.340446472E0,1.208425522E1
1.734164347E1,-7.900109768E0,-4.188385010E0,9.773050308E0
1.735165620E1,-7.143898964E0,-2.531311989E0,6.971300125E0
1.736166880E1,-6.286974907E0,-2.055549622E0,4.072720528E0
1.737168197E1,-5.301765442E0,-1.889228821E0,1.299039364E0
1.738169504E1,-4.216074467E0,-1.300006866E0,-6.502300501E-1
1.739170790E1,-3.670016527E0,-9.498872757E-1,-1.633251548E0
1.740172067E1,-2.961308002E0,-3.575315475E-1,-1.829898953E0
1.741173367E1,-2.280754089E0,4.847707748E-1,-7.152236700E-1
1.742174663E1,-1.684691429E0,1.203112602E0,9.661761522E-1
1.743175890E1,-1.124255419E0,1.696903706E0,2.694392681E0
1.744177130E1,-5.940442085E-1,1.969010353E0,2.965689421E0
1.745178453E1,-5.383863449E-1,1.611187458E0,2.117757797E0
1.746179780E1,-1.799877167E0,6.740527153E-1,1.702124834E0
1.747181076E1,-4.010590076E0,-9.045410156E-2,9.982353449E-1
1.748182383E1,-5.697938919E0,-5.069923401E-1,-7.967591286E-3
1.749183716E1,-6.864822865E0,-6.775836945E-1,-5.549963713E-1
1.750185040E1,-8.316945076E0,-5.437784195E-1,-1.461976767E-1
1.751186260E1,-9.543270111E0,-4.900264740E-2,1.313405514E0
1.752187456E1,-1.022412014E1,7.563095093E-1,2.800849438E0
1.753188696E1,-1.072892380E1,1.758784294E0,4.204040527E0
1.754189956E1,-1.079925632E1,2.309294701E0,4.677260399E0
1.755191176E1,-1.039362240E1,2.838017941E0,4.461197853E0
1.756192386E1,-9.983896255E0,3.119346619E0,4.312062263E0
1.757193620E1,-9.560062408E0,2.808487415E0,3.954632759E0
1.758194846E1,-9.117443085E0,2.378944397E0,3.326273918E0
1.759195963E1,-8.461461067E0,2.053742886E0,2.544526815E0
1.760197073E1,-7.739391327E0,1.760302067E0,1.623682618E0
1.761198239E1,-7.098277092E0,1.617276669E0,9.461147189E-1
1.762199403E1,-6.020526886E0,1.596303463E0,1.228823662E-1
1.763200519E1,-4.634944439E0,1.529935837E0,-7.631494999E-1
1.764201596E1,-2.593763113E0,1.283325195E0,-2.228342533E0
1.765202673E1,-5.035214424E-1,8.024325371E-1,-4.031465054E0
1.766203736E1,1.720301151E0,-6.645202637E-2,-6.348425865E0
1.767204729E1,4.139204979E0,-1.812312126E0,-8.224134445E0
1.768205709E1,6.574514389E0,-3.909043312E0,-6.467581749E0
1.769206779E1,8.531917572E0,-5.553853989E0,-2.368921757E0
1.770207836E1,9.598789215E0,-6.959956169E0,3.348520994E-1
1.771208846E1,1.045208073E1,-6.162226677E0,6.226613522E-1
1.772209839E1,1.047456551E1,-4.743630409E0,-6.930576563E-1
1.773210842E1,9.838714600E0,-2.744339943E0,-2.251417637E0
1.774211829E1,9.005564690E0,-5.304002762E-1,-4.182434559E0
1.775212719E1,5.476929665E0,-1.601236343E0,-4.481046200E0
1.776213596E1,7.180032730E-1,-5.412212372E0,-2.222258091E0
1.777214532E1,-1.772214055E0,-7.038015366E0,1.063368320E-1
1.778215459E1,-2.298629761E0,-7.531121254E0,1.326814175E0
1.779216352E1,-2.205322266E0,-7.774241447E0,1.434709787E0
1.780217252E1,-2.711937428E0,-8.049355507E0,2.391925812E0
1.781218189E1,-4.247610569E0,-8.442355156E0,1.044769526E0
1.782219125E1,-6.690990925E0,-7.945576668E0,-1.978379965E0
1.783219999E1,-9.179134369E0,-6.016072273E0,-3.765806675E0
1.784220842E1,-1.046375942E1,-2.847062111E0,-2.892022133E0
1.785221745E1,-9.650375366E0,7.588653564E-1,-1.431902409E0
1.786222655E1,-8.595221519E0,2.685866356E0,-3.105468154E-1
1.787223542E1,-9.071909904E0,4.400055885E0,1.478673458E0
1.788224445E1,-9.189479828E0,5.527616501E0,3.491697550E0
1.789225385E1,-8.590411186E0,5.973387718E0,5.077733040E0
1.790226378E1,-8.635784149E0,5.638442993E0,6.188358307E0
1.791227325E1,-7.645266533E0,4.512055874E0,5.446981430E0
1.792228265E1,-5.959029198E0,2.818908215E0,3.491011620E0
1.793229292E1,-4.996171951E0,1.160754204E0,2.200854540E0
1.794230332E1,-4.071639061E0,-4.218683243E-1,2.071897030E0
1.795231362E1,-3.576338291E0,-1.376360893E0,3.090144157E0
1.796232405E1,-2.779575348E0,-2.125500679E0,4.009832382E0
1.797233508E1,-1.955922484E0,-2.442429543E0,3.955719948E0
1.798234638E1,-1.096213460E0,-2.308723450E0,3.314004660E0
1.799235695E1,-6.418874264E-1,-2.179759979E0,2.575926065E0
1.800236781E1,-4.724208117E-1,-1.976418495E0,1.877111077E0
1.801237951E1,-2.418434620E-1,-1.614416122E0,1.716998339E0
1.802239131E1,-1.898825169E-1,-1.937905312E0,5.946206093E0
1.803240298E1,1.569207191E0,-1.496944427E0,3.943641424E0
1.804241478E1,3.022683144E0,-8.794422150E-1,8.645018339E-1
1.805242688E1,3.550320864E0,-1.893205643E-1,-1.445274591E0
1.806243904E1,3.069441795E0,5.168151855E-1,-3.398589373E0
1.807245068E1,2.698729038E0,1.274795532E0,-4.196393013E0
1.808246244E1,2.655683279E0,1.856755257E0,-5.254719257E0
1.809247518E1,2.566281319E0,2.120559692E0,-6.520115376E0
1.810248794E1,2.061443329E0,2.020119190E0,-7.494634151E0
1.811250044E1,1.632424355E0,1.745769024E0,-6.984904289E0
1.812251314E1,1.284505129E0,1.351287842E0,-5.576326370E0
1.813252634E1,1.192095041E0,9.743003845E-1,-3.724869251E0
1.814253964E1,9.086015821E-1,9.338502884E-1,-2.341300964E0
1.815255228E1,7.212041020E-1,9.276256561E-1,-1.365525007E0
1.816256491E1,5.217126608E-1,1.014983177E0,-6.379841566E-1
1.817257818E1,2.735462785E-1,9.499607086E-1,2.640173435E-1
1.818259138E1,1.276341081E-1,1.082333565E0,1.493428111E0
1.819260424E1,-3.391156793E-1,9.116115570E-1,2.280995607E0
1.820261657E1,-9.138178825E-1,3.100852966E-1,2.432865620E0
1.821262914E1,-1.214202762E0,-2.918033600E-1,2.329736233E0
1.822264194E1,-1.245451093E0,-6.289463043E-1,2.217194557E0
1.823265414E1,-1.016393542E0,-6.631937027E-1,2.129836321E0
1.824266641E1,-8.592515588E-1,-4.935474396E-1,2.037194729E0
1.825267957E1,-8.653308749E-1,-2.740173340E-1,2.077669144E0
1.826269277E1,-7.525860071E-1,-8.619880676E-2,1.964215755E0
1.827270537E1,-5.239730477E-1,-1.332874298E-1,1.779485464E0
1.828271794E1,-1.028822660E-1,-3.575992584E-1,1.119475126E0
1.829273064E1,-8.554160595E-3,-3.708982468E-1,1.025150895E0
1.830274307E1,8.735183477E-1,-1.142000198E0,-5.080747604E-2
1.831275464E1,1.314319134E0,-1.393339157E0,1.118762493E-1
1.832276604E1,1.718009472E0,-1.492788315E0,8.892993927E-1
1.833277810E1,2.525917530E0,-1.666133881E0,5.191745758E-1
1.834279024E1,3.407282591E0,-1.786717415E0,-1.258012891E0
1.835280217E1,4.089544296E0,-1.727282524E0,-2.855099678E0
1.836281394E1,4.391224384E0,-1.389924049E0,-3.427704811E0
1.837282587E1,4.793074608E0,-1.139546394E0,-3.272998333E0
1.838283767E1,5.456439018E0,-9.764308929E-1,-3.336534023E0
1.839284863E1,6.215620995E0,-1.020903587E0,-4.376855373E0
1.840285963E1,7.232241154E0,-1.316920280E0,-6.964704514E0
1.841287130E1,8.842534065E0,-2.515233994E0,-9.630352974E0
1.842288280E1,1.016881943E1,-4.509305954E0,-1.028508759E1
1.843289390E1,1.018064690E1,-5.451446533E0,-8.990051270E0
1.844290497E1,8.660964966E0,-4.491545677E0,-7.669687271E0
1.845291653E1,6.177614212E0,-3.267631531E0,-6.952504158E0
1.846292810E1,4.931525230E0,-2.633716583E0,-5.824710846E0
1.847293906E1,4.619410038E0,-2.244703293E0,-3.569452763E0
1.848295003E1,4.491653919E0,-2.473007202E0,-2.360755682E0
1.849296203E1,3.333871603E0,-3.078870773E0,-2.673271656E0
1.850297426E1,2.276127100E0,-3.910182953E0,-3.392323971E0
1.851298616E1,8.907637000E-1,-4.720373154E0,-2.966434956E0
1.852299813E1,1.810471416E-1,-5.845429420E0,-1.864250183E0
1.853301046E1,-5.881594419E-1,-6.774719238E0,-4.073911607E-1
1.854302296E1,-1.992916584E0,-8.192221642E0,2.613584280E0
1.855303480E1,-3.823239803E0,-1.020831203E1,4.984612465E0
1.856304676E1,-5.779083729E0,-1.133520603E1,8.571108818E0
1.857305973E1,-7.881303310E0,-1.130556488E1,1.111293221E1
1.858307279E1,-8.546522141E0,-8.974490166E0,1.223227215E1
1.859308563E1,-7.552175045E0,-6.377448082E0,1.140097332E1
1.860309856E1,-5.973590374E0,-3.465826988E0,9.564264297E0
1.861311199E1,-5.131463051E0,-1.814591408E0,8.311198235E0
1.862312562E1,-4.289690018E0,-1.076657295E0,6.866473675E0
1.863313866E1,-3.389721870E0,-4.190950394E-1,4.804073334E0
1.864315182E1,-2.922898769E0,6.567764282E-2,3.551239014E0
1.865316576E1,-2.428966045E0,5.287914276E-1,2.049567938E0
1.866317999E1,-1.820211411E0,1.044445515E0,3.141345978E-1
1.867319416E1,-7.942893505E-1,1.589089394E0,-1.542832732E0
1.868320856E1,-1.851305962E-1,1.812495708E0,-2.489058971E0
1.869322329E1,-5.642092228E-1,1.295945644E0,-2.178179264E0
1.870323809E1,-1.502950668E0,3.086700439E-1,-1.371932626E0
1.871325246E1,-2.675728798E0,-3.417644501E-1,1.714198589E-1
1.872326702E1,-4.410967827E0,-7.408075333E-1,1.466180801E0
1.873328239E1,-5.845096111E0,-7.504310608E-1,2.304039717E0
1.874329772E1,-7.023015976E0,-4.130201340E-1,2.891228676E0
1.875331245E1,-7.820239544E0,1.984825134E-1,3.590292454E0
1.876332712E1,-7.868469238E0,1.443653107E-1,3.693245888E0
1.877334222E1,-9.109338760E0,1.724928856E0,4.705868721E0
1.878335745E1,-9.572534561E0,2.699994087E0,4.738276005E0
1.879337198E1,-1.002816200E1,3.371315002E0,4.676899433E0
1.880338662E1,-1.021526146E1,4.012684345E0,4.501650333E0
1.881340208E1,-1.014740086E1,4.374860764E0,4.130949020E0
1.882341748E1,-9.915060997E0,4.436934471E0,3.712784767E0
1.883343252E1,-9.536319733E0,4.258751392E0,3.058882713E0
1.884344758E1,-9.091360092E0,3.742884636E0,2.350983381E0
1.885346288E1,-8.461606979E0,3.150294304E0,1.369727254E0
1.886347825E1,-7.448219299E0,2.437856197E0,2.588596344E-1
1.887349278E1,-6.274299145E0,1.759488106E0,-7.712473869E-1
1.888350722E1,-3.902175188E0,1.134359837E0,-1.707946062E0
1.889352445E1,-1.295594454E0,3.978338242E-1,-2.667732716E0
1.890354188E1,1.674736023E0,-6.201353073E-1,-3.450731754E0
1.891355911E1,4.383501530E0,-1.961878777E0,-5.608289719E0
1.892357655E1,6.965998173E0,-4.547776222E0,-7.959434986E0
1.893359441E1,9.028108597E0,-6.951822281E0,-7.193832397E0
1.894361231E1,9.885698318E0,-8.616930962E0,-4.484966755E0
1.895362955E1,9.954395294E0,-8.145009995E0,-3.370705128E0
1.896364695E1,9.745765686E0,-6.400857925E0,-3.457627773E0
1.897366501E1,9.083856583E0,-3.798991203E0,-4.171371937E0
1.898368298E1,6.097949982E0,-1.179019928E0,-4.467600822E0
1.899370061E1,2.572783232E0,4.551630020E-1,-3.788008690E0
1.900371824E1,-2.907991409E-2,-8.862218857E-1,-1.910992026E0
1.901373611E1,-2.477563381E0,-5.333724976E0,-1.439094543E-3
1.902375408E1,-3.132086992E0,-7.591830254E0,2.366455555E0
1.903377131E1,-3.061423302E0,-1.032065582E1,2.734156132E0
1.904378871E1,-2.582056284E0,-1.350187683E1,3.236795902E0
1.905380711E1,-2.037037373E0,-1.351844120E1,4.321060181E0
1.906382578E1,-2.643661976E0,-6.854767799E0,4.529264927E0
1.907384418E1,-3.875358582E0,-1.968078613E0,1.735363483E0
1.908386254E1,-5.146903038E0,8.419733047E-1,-6.276288629E-1
1.909388111E1,-6.345708847E0,2.536079884E0,-1.353582859E0
1.910389957E1,-7.161009789E0,3.818724632E0,-7.970627546E-1
1.911391741E1,-8.172590256E0,4.934410095E0,-3.099223971E-2
1.912393541E1,-8.178704262E0,5.520108223E0,-1.734469384E-1
1.913395411E1,-8.144994736E0,5.716545105E0,1.828156412E-1
1.914397301E1,-8.410019875E0,5.637379646E0,1.031333923E0
1.915399177E1,-8.655847549E0,4.543187141E0,1.393839836E0
1.916401037E1,-8.619716644E0,1.924544334E0,8.998107314E-1
1.917402934E1,-7.727670670E0,-4.077539444E-1,1.000182390E0
1.918404834E1,-6.522575378E0,-2.101062775E0,1.142065287E0
1.919406430E1,-5.629252434E0,-3.140202522E0,1.405753255E0
1.920408000E1,-4.648978233E0,-3.406874657E0,2.444510937E0
1.921409617E1,-4.021562576E0,-2.965393066E0,3.501177549E0
1.922411210E1,-3.014256477E0,-1.928987503E0,3.558297873E0
1.923412747E1,-2.182326078E0,-9.735002518E-1,3.285501719E0
1.924414257E1,-1.446660042E0,-5.104732513E-2,3.022202015E0
1.925415790E1,-8.134276867E-1,4.264850616E-1,2.785364151E0
1.926417300E1,-1.291084290E-1,4.420528412E-1,2.320206165E0
1.927418727E1,8.716011047E-2,2.102985382E-1,1.664462090E0
1.928420137E1,2.105035782E-1,-1.150131226E-3,1.207055569E0
1.929421617E1,4.062139988E-1,-3.017044067E-1,1.145181656E0
1.930423100E1,5.539369583E-1,-1.411080360E0,6.714115620E0
1.931424540E1,2.246822357E0,-1.436102867E0,4.302757740E0
1.932426010E1,3.648781776E0,-6.109800339E-1,3.438178301E-1
1.933427517E1,4.194400787E0,1.840867996E-1,-2.331216574E0
1.934429023E1,4.112462997E0,1.105021477E0,-2.837422371E0
1.935430463E1,4.038973808E0,1.688715458E0,-2.280991793E0
1.936431887E1,4.051487446E0,1.945449829E0,-1.932980657E0
1.937433357E1,4.111459732E0,2.008548260E0,-3.328731060E0
1.938434817E1,3.924893379E0,1.947998047E0,-5.341485977E0
1.939436243E1,3.330112934E0,1.795368671E0,-6.311882973E0
1.940437670E1,2.322475910E0,1.386631966E0,-6.123366356E0
1.941439110E1,1.557957172E0,8.879919052E-1,-5.116686344E0
1.942440523E1,8.985775709E-1,3.679208755E-1,-4.197469711E0
1.943441870E1,1.222711504E-1,-1.491260529E-2,-3.677834511E0
1.944443186E1,-3.186819553E-1,1.062908173E-1,-3.340618134E0
1.945444536E1,-3.859139085E-1,3.775501251E-1,-2.781218290E0
1.946445876E1,-3.367302120E-1,6.491174698E-1,-2.201371670E0
1.947447170E1,-3.958741724E-1,8.710947037E-1,-1.673286438E0
1.948448450E1,-4.292945266E-1,8.755846024E-1,-1.143173933E0
1.949449783E1,-4.591387212E-1,6.192922592E-1,-3.490390778E-1
1.950451130E1,-6.013099551E-1,2.615022659E-1,9.312887192E-1
1.951452423E1,-7.139508128E-1,-1.341896057E-1,1.620779514E0
1.952453716E1,-5.070827007E-1,-5.909280777E-1,1.643199682E0
1.953455089E1,-3.149251938E-1,-9.206743240E-1,1.438004971E0
1.954456476E1,-2.545025945E-1,-9.272174835E-1,1.394939303E0
1.955457849E1,5.341153741E-1,-7.100753784E-1,7.605783939E-1
1.956459219E1,9.146957994E-1,-3.802471161E-1,8.782852888E-1
1.957460619E1,1.172791243E0,-2.958126068E-1,1.253123760E0
1.958462033E1,1.209011078E0,-6.634979248E-1,1.799349785E0
1.959463349E1,1.450147986E0,-1.401765823E0,1.953964472E0
1.960464662E1,1.973476291E0,-2.557567596E0,4.173383713E-1
1.961466042E1,2.752113819E0,-3.313681602E0,-1.716775179E0
1.962467369E1,3.779182911E0,-3.123555183E0,-2.871769190E0
1.963468636E1,3.896618128E0,-3.162463188E0,-2.997376919E0
1.964469886E1,6.188532352E0,-1.984489441E0,-4.182745457E0
1.965471149E1,8.742170334E0,-2.010384560E0,-8.967243195E0
1.966472432E1,9.723011017E0,-1.761240959E0,-1.295355129E1
1.967473669E1,9.273209572E0,-1.802553177E0,-1.298034477E1
1.968474909E1,8.569418907E0,-1.435627937E0,-1.023081970E1
1.969476239E1,7.357601166E0,-1.002815247E0,-6.671897411E0
1.970477552E1,6.385686874E0,-5.748167038E-1,-4.442180634E0
1.971478836E1,6.304325104E0,-1.169417381E0,-3.665598392E0
1.972480136E1,6.316050529E0,-3.052629471E0,-2.819306374E0
1.973481469E1,6.128061295E0,-4.975378036E0,-2.186465502E0
1.974482802E1,5.035019398E0,-6.861634254E0,-2.349571943E0
1.975484082E1,3.438081741E0,-8.576413155E0,-2.121388435E0
1.976485365E1,1.511728525E0,-1.009233379E1,-7.728452086E-1
1.977486722E1,-1.129272342E0,-1.240801239E1,2.363626003E0
1.978488102E1,-3.623712063E0,-1.395497799E1,4.354714394E0
1.979489459E1,-6.189351082E0,-1.408530712E1,9.022425652E0
1.980490819E1,-8.609077454E0,-1.208472824E1,1.108160019E1
1.981492212E1,-9.770256996E0,-9.002279282E0,1.151284313E1
1.982493612E1,-9.695718765E0,-5.511319160E0,1.041715813E1
1.983494958E1,-9.653308868E0,-3.630133629E0,8.234321594E0
1.984496305E1,-8.347468376E0,-9.849510193E-1,4.155417919E0
1.985497718E1,-7.045053482E0,4.949960709E-1,5.656788945E-1
1.986499148E1,-5.597524643E0,1.118185043E0,-4.577497482E0
1.987500568E1,-4.442893028E0,1.306140900E0,-7.019236565E0
1.988501988E1,-4.393091679E0,6.079664230E-1,-4.263059616E0
1.989503502E1,-4.378782272E0,5.041723251E-1,-9.802250862E-1
1.990505028E1,-4.039721489E0,6.258201599E-1,1.965663195E0
1.991506535E1,-3.411760330E0,9.052252769E-1,3.303166151E0
1.992508062E1,-2.898134470E0,1.112513065E0,3.329588890E0
1.993509672E1,-2.386557817E0,1.213239193E0,3.425191879E0
1.994511295E1,-2.052908659E0,1.077479839E0,3.178098679E0
1.995512881E1,-2.467158079E0,5.702195168E-1,2.385181904E0
1.996514441E1,-3.510962009E0,1.677799225E-1,1.479079485E0
1.997516015E1,-3.618550301E0,9.936523438E-2,1.507151127E0
1.998519711E1,-5.968339920E0,1.299619675E-1,4.922312498E-1
1.999523308E1,-7.048830509E0,5.980963707E-1,1.410228133E0
2.000526908E1,-8.304467201E0,1.070723534E0,2.919985056E0
2.001530591E1,-9.328857422E0,1.626295567E0,4.492337227E0
2.002534268E1,-1.013555145E1,2.248376846E0,5.337290764E0
2.003537918E1,-1.081960773E1,2.983575344E0,5.576836586E0
2.004541571E1,-1.113194466E1,3.642096043E0,5.268401146E0
2.005545254E1,-1.077793312E1,3.997775555E0,4.702177048E0
2.006548941E1,-1.021216202E1,3.890910149E0,4.059544563E0
2.007552568E1,-9.378086090E0,3.523499012E0,3.155063152E0
2.008556184E1,-8.253305435E0,3.034846783E0,1.804787397E0
2.009559864E1,-7.069391251E0,2.592633247E0,4.797703028E-1
2.010563534E1,-5.501365662E0,1.977334976E0,-9.895612001E-1
2.011567164E1,-3.447537422E0,1.243561268E0,-2.634539843E0
2.012570784E1,-5.160956383E-1,2.748336792E-1,-4.349072456E0
2.013574404E1,1.951165676E0,-1.371683121E0,-6.855720997E0
2.014578018E1,4.524184227E0,-3.588353157E0,-9.162478447E0
2.015581538E1,7.393743038E0,-6.311364174E0,-9.763959885E0
2.016585048E1,9.538452148E0,-7.347215652E0,-5.794330597E0
2.017588601E1,1.121908855E1,-7.361436844E0,-2.724776745E0
2.018592171E1,1.142800236E1,-6.841483116E0,-1.997389555E0
2.019595674E1,1.060760117E1,-5.689813614E0,-2.729522228E0
2.020599171E1,9.434272766E0,-2.918542862E0,-2.781251907E0
2.021602674E1,6.611065388E0,4.987115860E-1,-2.050018311E0
2.022606181E1,3.920584679E0,2.075122833E0,-1.619935751E0
2.023609647E1,1.533760071E0,3.029372215E0,-8.227227330E-1
2.024613110E1,-6.205196381E-1,2.654923439E0,2.078226805E-1
2.025616647E1,-2.609192610E0,-1.633111000E0,8.452700973E-1
2.026620207E1,-4.052035332E0,-5.151405334E0,1.003257275E0
2.027623747E1,-4.375212669E0,-7.996685028E0,1.583028197E0
2.028625177E1,-3.899862528E0,-1.100689411E1,1.725682497E0
2.029626667E1,-3.573565483E0,-1.253987122E1,2.884851694E0
2.030628174E1,-3.993226528E0,-1.143631268E1,1.767523527E0
2.031629620E1,-7.178514957E0,-9.306380272E0,-4.434483647E-1
2.032631074E1,-1.027830315E1,-7.580437660E0,-2.064316273E0
2.033632577E1,-1.220952225E1,-4.579969406E0,-2.535682917E0
2.034634094E1,-1.151118851E1,-1.037984848E0,-9.039631486E-2
2.035635577E1,-9.649517059E0,2.585508823E0,7.935497761E-1
2.036637073E1,-8.718297005E0,5.079472065E0,1.635714293E0
2.037638597E1,-8.569440842E0,6.664088726E0,2.460685492E0
2.038640130E1,-7.976015091E0,7.964384079E0,3.658551216E0
2.039641603E1,-6.614106655E0,8.450539589E0,3.530135155E0
2.040643093E1,-4.812505722E0,7.193307877E0,2.758203268E0
2.041644650E1,-3.858658791E0,4.165298939E0,1.162506104E0
2.042646230E1,-3.554368734E0,1.246070862E0,4.780751467E-2
2.043647800E1,-3.410996437E0,-9.689083099E-1,7.614435554E-1
2.044649380E1,-3.207591534E0,-2.839490891E0,2.187146187E0
2.045651020E1,-2.595921755E0,-3.757049561E0,3.464265108E0
2.046652687E1,-2.004521370E0,-3.887810707E0,3.333029747E0
2.047654306E1,-1.499665976E0,-3.542132378E0,2.489961147E0
2.048655910E1,-1.546425819E0,-3.074756622E0,1.750074625E0
2.049657566E1,-1.495134830E0,-2.204913139E0,1.528206229E0
2.050659206E1,-1.405573487E0,-1.282752991E0,3.062170506E0
2.051660796E1,-1.021204948E0,-6.326494217E-1,5.922258854E0
2.052662370E1,3.806076050E-1,-1.444263458E-1,3.718347073E0
2.053663936E1,1.775874138E0,7.395143509E-1,6.205828190E-1
2.054665493E1,2.271348715E0,1.044046402E0,-1.269192219E0
2.055666986E1,2.318448544E0,1.122270584E0,-2.367843628E0
2.056668473E1,2.547878742E0,9.428071976E-1,-2.441791534E0
2.057669999E1,3.011777401E0,7.456121445E-1,-1.881631494E0
2.058671506E1,3.694851398E0,9.233150482E-1,-2.162045717E0
2.059672953E1,3.931904316E0,1.270918846E0,-3.156594992E0
2.060674389E1,3.476652622E0,1.635238647E0,-4.004537582E0
